Sample:	'SLABO1-5-5-320
File name:	
Run Date:	16:13:40, 08/15/2022
Operator:	Administrator
Comment:	'

Instrument
Model:	F-7000 FL Spectrophotometer
Serial Number:	2354-007
ROM Version:	5J14000 06

Instrument Parameters
Measurement type:	3-D Scan
Data mode:	Fluorescence
EX  Start WL:	200.0 nm
EX  End WL:	450.0 nm
EX Sampling Interval:	5.0 nm
EM  Start WL:	280.0 nm
EM  End WL:	550.0 nm
EM Sampling Interval:	5.0 nm
Scan speed:	12000 nm/min
EX Slit:	5.0 nm
EM Slit:	5.0 nm
PMT Voltage:	700 V
Response:	Auto 
Corrected spectra:	Off
Shutter control:	On
Contour interval:	25.000

Peak integration
Integration method:	Rectangular
Sensitivity:	1
Threshold:	1.000

Peaks
No.	ApexEX/EM(nm)	Height(Data)
1	205.0/335.0	657.6
2	205.0/440.0	356.1
3	205.0/480.0	193.3
4	205.0/535.0	73.68
5	210.0/345.0	622.7
6	210.0/400.0	452.4
7	210.0/465.0	300.2
8	210.0/490.0	198.9
9	215.0/365.0	441.7
10	215.0/415.0	426.0
11	215.0/455.0	352.1
12	215.0/475.0	270.4
13	215.0/495.0	182.4
14	215.0/520.0	84.42
15	215.0/535.0	81.86
16	220.0/380.0	482.3
17	220.0/400.0	466.7
18	220.0/470.0	289.3
19	220.0/485.0	207.4
20	220.0/500.0	194.0
21	225.0/315.0	822.4
22	225.0/325.0	779.9
23	225.0/355.0	600.9
24	225.0/385.0	472.2
25	225.0/410.0	476.1
26	225.0/430.0	437.7
27	225.0/545.0	84.33
28	230.0/350.0	581.6
29	230.0/405.0	505.5
30	230.0/495.0	201.7
31	230.0/510.0	172.3
32	235.0/395.0	484.8
33	235.0/435.0	446.0
34	235.0/505.0	172.5
35	235.0/525.0	127.4
36	235.0/540.0	93.31
37	240.0/380.0	427.7
38	240.0/415.0	491.4
39	245.0/390.0	434.7
40	245.0/450.0	401.6
41	245.0/505.0	176.5
42	245.0/540.0	81.52
43	250.0/545.0	89.87
44	260.0/285.0	190.1
45	260.0/370.0	379.9
46	260.0/395.0	386.2
47	260.0/425.0	441.4
48	265.0/385.0	392.8
49	265.0/420.0	445.1
50	270.0/390.0	405.5
51	270.0/415.0	434.3
52	270.0/430.0	442.0
53	270.0/500.0	215.6
54	275.0/305.0	 1149
55	275.0/380.0	434.3
56	275.0/405.0	432.9
57	275.0/420.0	445.7
58	275.0/440.0	450.1
59	280.0/310.0	 1241
60	280.0/410.0	444.3
61	280.0/435.0	426.5
62	280.0/490.0	237.9
63	285.0/315.0	 1096
64	285.0/385.0	412.7
65	300.0/335.0	545.9
66	300.0/400.0	397.9
67	300.0/450.0	295.7
68	305.0/340.0	516.7
69	310.0/345.0	489.7
70	315.0/350.0	445.7
71	315.0/395.0	391.5
72	315.0/410.0	392.8
73	315.0/420.0	394.4
74	320.0/360.0	433.4
75	320.0/405.0	392.9
76	320.0/425.0	391.6
77	320.0/445.0	327.5
78	325.0/365.0	470.8
79	325.0/410.0	390.9
80	330.0/370.0	493.0
81	330.0/415.0	381.0
82	330.0/435.0	366.2
83	335.0/375.0	452.9
84	340.0/385.0	443.8
85	345.0/390.0	433.8
86	350.0/295.0	1.761
87	350.0/395.0	421.3
88	355.0/405.0	372.4
89	360.0/300.0	2.178
90	360.0/410.0	383.5
91	365.0/315.0	2.671
92	365.0/415.0	369.9
93	370.0/420.0	339.6
94	375.0/315.0	2.150
95	375.0/430.0	302.0
96	380.0/290.0	1.813
97	380.0/435.0	273.1
98	385.0/440.0	229.2
99	390.0/450.0	188.1
100	395.0/295.0	2.359
101	395.0/455.0	177.5
102	400.0/360.0	3.484
103	400.0/460.0	140.1
104	410.0/310.0	2.635
105	410.0/345.0	2.264
106	410.0/475.0	113.5
107	415.0/485.0	89.96
108	420.0/490.0	77.47
109	425.0/495.0	70.56
110	430.0/315.0	2.470
111	430.0/500.0	62.36
112	435.0/345.0	2.320
113	435.0/365.0	2.516
114	435.0/510.0	54.46
115	440.0/515.0	47.13
116	445.0/335.0	3.171
117	445.0/525.0	39.43

Data Points
	200.0	205.0	210.0	215.0	220.0	225.0	230.0	235.0	240.0	245.0	250.0	255.0	260.0	265.0	270.0	275.0	280.0	285.0	290.0	295.0	300.0	305.0	310.0	315.0	320.0	325.0	330.0	335.0	340.0	345.0	350.0	355.0	360.0	365.0	370.0	375.0	380.0	385.0	390.0	395.0	400.0	405.0	410.0	415.0	420.0	425.0	430.0	435.0	440.0	445.0	450.0
280.0	6.482	-3.755	7.491	-3.616	27.73	14.88	0.823	-2.055	7.868	20.23	42.44	97.89	60.36	15.06	8.708	157.5	 1338	981.8	42.74	2.932	5.351	2.504	2.521	2.217	2.034	1.919	0.769	0.006	0.487	0.324	0.286	0.062	1.719	0.935	0.137	0.358	1.295	0.368	0.614	0.025	0.362	0.693	0.239	0.473	0.389	0.363	0.984	0.611	-0.007	0.241	0.644
285.0	164.5	89.39	145.9	98.15	105.5	88.19	43.49	15.17	19.50	70.43	83.67	112.6	190.1	126.1	46.75	46.70	365.9	 3285	 3167	342.0	4.165	4.556	2.042	1.508	1.510	3.377	0.412	1.138	0.812	0.383	1.212	1.760	0.451	1.016	0.749	0.353	0.387	0.000	0.587	1.435	0.842	0.896	0.323	0.345	0.568	0.409	0.406	0.394	0.595	0.262	0.246
290.0	388.8	255.1	190.2	250.5	201.9	282.7	167.1	89.12	70.08	110.8	128.4	157.4	167.5	352.0	213.1	159.1	157.5	891.1	 6083	 5060	421.7	6.176	5.024	2.327	1.400	1.601	1.193	2.484	1.125	0.293	0.618	0.392	0.067	0.988	0.163	1.310	1.813	0.111	1.117	0.921	0.961	0.331	0.450	0.695	0.866	1.020	0.771	1.501	1.341	1.775	0.942
295.0	729.5	443.8	350.9	460.0	518.1	494.6	273.8	203.7	128.5	141.7	174.0	188.1	176.1	373.0	555.4	379.2	304.2	231.3	 1413	 8522	 6767	555.1	8.719	5.419	6.150	1.909	3.279	2.585	0.804	0.582	1.761	1.399	1.066	0.399	1.075	1.109	1.097	1.047	0.591	2.359	1.629	0.862	1.084	1.069	0.736	1.063	1.245	1.179	1.313	1.456	1.852
300.0	816.0	681.5	622.8	515.5	643.4	589.6	443.5	245.9	162.1	173.7	203.5	210.8	209.2	323.7	706.5	841.7	509.4	306.5	219.8	 1707	9999.9	 7969	564.9	8.827	6.559	5.291	3.691	2.753	2.120	1.022	0.600	1.187	2.178	1.295	0.516	0.850	0.631	1.414	0.935	1.364	1.023	1.287	0.907	0.845	2.019	1.659	1.473	1.665	2.040	2.396	1.709
305.0	913.6	818.1	650.0	652.7	600.3	703.4	569.1	400.9	231.2	201.4	205.3	251.1	271.5	355.7	549.5	 1149	969.6	402.8	183.1	180.6	 1859	9999.9	 8523	650.5	10.64	5.700	4.068	3.020	1.676	2.550	2.157	2.534	1.573	1.033	1.825	0.934	0.320	0.452	0.610	1.841	1.239	1.894	1.546	0.903	1.742	1.771	2.079	1.192	1.968	2.337	2.309
310.0	903.6	714.3	665.6	615.3	701.4	702.8	604.0	529.2	328.7	261.8	231.7	258.6	331.5	436.7	583.7	838.5	 1241	756.6	236.6	99.20	168.5	 1891	9999.9	 8673	664.7	10.58	6.794	3.522	3.100	2.554	3.264	1.590	1.800	1.066	0.954	1.216	1.635	1.036	1.485	2.060	1.957	1.689	2.635	1.027	1.389	2.310	1.603	1.707	1.817	2.521	2.366
315.0	 1080	920.5	751.9	488.9	743.1	822.4	610.5	477.6	333.5	243.1	278.4	293.1	320.6	450.3	593.5	723.1	914.6	 1096	444.9	140.6	75.69	162.9	 2162	9999.9	 8601	577.2	10.01	5.134	4.850	4.026	1.673	1.662	1.177	2.671	1.009	2.150	1.385	0.968	1.104	2.078	1.310	1.524	1.047	1.077	1.660	1.228	2.470	2.125	1.910	2.002	2.188
320.0	675.3	854.4	593.7	549.6	666.8	721.2	712.9	450.4	377.0	315.7	319.5	368.9	400.2	460.7	618.2	678.1	744.5	816.0	798.7	249.3	99.64	66.82	182.2	 2038	9999.9	 8215	560.3	6.301	7.116	4.084	1.956	1.639	4.332	1.456	1.599	1.622	1.231	1.271	0.929	1.210	1.587	1.385	0.928	1.239	1.455	1.458	1.412	2.037	2.174	2.262	2.510
325.0	541.4	753.4	685.7	532.3	685.4	779.9	730.1	520.6	402.5	329.7	344.9	351.1	407.5	476.1	590.7	687.1	669.9	605.5	642.5	632.2	171.0	78.00	57.19	168.4	 1992	9999.9	 8159	578.3	6.375	6.377	3.304	2.598	3.549	3.439	1.669	0.707	0.844	1.711	1.358	1.064	0.920	1.468	1.536	1.001	1.754	1.346	0.954	1.953	1.855	2.621	1.909
330.0	603.4	537.2	527.8	352.8	618.3	756.7	632.0	479.8	350.3	334.6	336.7	382.5	435.0	478.8	552.4	651.9	667.8	550.1	394.1	556.2	479.9	120.8	61.06	53.36	161.6	 1848	9999.9	 8004	550.5	8.299	6.171	5.966	3.973	2.418	1.738	2.152	0.753	1.097	1.513	1.269	1.488	1.903	0.975	1.818	1.611	1.239	1.495	1.343	2.044	2.402	3.496
335.0	541.7	657.6	512.2	400.6	573.5	655.5	624.0	427.6	350.4	361.7	352.7	346.5	443.7	454.1	546.6	614.7	659.7	530.6	378.6	295.8	545.9	345.2	91.49	59.15	55.80	153.2	 1864	9999.9	 7639	536.2	6.478	6.480	4.468	3.138	2.855	1.907	1.891	1.262	1.247	1.848	1.214	1.410	1.678	1.910	1.835	1.143	1.338	1.496	1.627	3.171	2.420
340.0	448.3	395.6	522.1	470.9	471.1	670.1	508.8	463.3	358.5	367.1	350.0	396.6	391.8	465.8	507.4	588.4	606.8	524.4	387.4	267.8	272.6	516.7	259.7	85.77	64.12	57.64	152.1	 1761	9999.9	 7414	537.6	10.24	6.521	4.781	3.796	2.454	1.465	1.620	1.157	1.375	1.550	1.701	2.032	1.158	1.069	0.856	2.072	1.571	1.811	1.736	2.713
345.0	481.4	456.4	622.7	455.0	433.1	590.8	558.6	429.8	312.8	380.2	374.0	379.9	397.2	495.3	485.7	537.3	580.7	493.1	388.9	280.3	211.2	270.6	489.7	197.6	93.33	69.92	58.39	153.2	 1725	 9701	 7310	550.4	8.513	5.679	3.974	2.188	1.194	1.304	1.934	1.433	1.916	0.606	2.264	0.509	1.337	1.931	1.067	2.320	1.700	1.246	2.231
350.0	337.8	413.3	461.7	379.6	578.2	572.8	581.6	430.7	395.4	384.6	362.0	375.6	397.4	451.4	495.0	504.2	556.7	482.0	383.2	272.6	215.4	188.0	323.2	445.7	162.9	88.40	81.26	64.65	151.6	 1582	 9203	 7075	522.3	5.902	4.442	3.408	2.868	2.733	1.052	1.091	1.059	1.243	1.238	1.526	1.364	1.514	1.556	1.526	2.303	2.038	2.627
355.0	469.3	299.6	378.0	430.6	498.5	600.9	521.5	420.1	345.4	365.7	340.5	324.0	371.5	420.1	481.7	500.4	503.0	482.3	381.4	304.1	250.3	199.7	201.5	384.3	406.8	147.7	107.0	77.51	68.54	141.5	 1538	 9009	 7134	513.3	7.729	4.929	3.460	3.560	1.675	1.306	1.282	1.630	1.079	1.714	2.008	1.262	1.871	1.128	1.700	1.778	2.193
360.0	174.8	228.3	355.8	365.6	419.6	515.8	415.8	397.7	330.4	365.4	324.7	352.4	348.1	396.0	429.3	459.3	482.3	435.7	384.0	308.8	252.1	239.4	201.6	233.4	433.4	358.7	140.7	111.8	84.02	70.46	141.0	 1580	 9149	 6550	459.1	7.656	5.737	4.674	1.948	2.097	3.484	1.066	1.789	1.175	1.655	1.868	1.438	2.315	2.084	1.444	2.692
365.0	142.2	317.0	216.5	441.7	407.9	434.3	434.6	421.3	354.3	344.1	320.5	351.9	343.1	391.4	431.1	449.4	454.4	454.1	397.7	312.1	267.0	270.7	228.6	232.5	281.9	470.8	308.8	145.9	111.0	85.21	74.27	145.7	 1498	 8490	 6574	444.5	6.570	5.998	3.950	3.406	1.660	2.245	1.131	2.102	1.861	2.123	0.846	2.516	1.681	2.096	2.206
370.0	249.0	287.2	321.4	364.9	353.7	469.0	436.2	369.6	372.3	373.6	335.1	367.3	379.9	363.9	428.8	437.6	425.2	446.7	374.1	309.8	297.4	271.6	257.1	258.4	253.7	331.4	493.0	270.4	154.9	115.4	87.12	65.32	138.1	 1458	 8305	 5965	428.7	5.891	3.898	3.953	2.530	1.880	2.406	2.565	1.961	1.870	1.656	1.450	1.437	1.931	1.990
375.0	175.4	210.3	266.4	372.1	433.0	393.2	429.7	414.7	388.1	376.5	359.5	339.8	359.7	363.0	388.9	416.4	400.8	412.2	372.9	315.3	309.6	296.1	283.6	285.7	260.5	275.7	366.0	452.9	224.4	137.9	107.2	81.72	64.28	135.1	 1384	 7758	 5653	398.6	7.528	4.332	3.146	3.523	2.129	2.562	1.385	1.897	1.596	1.782	1.707	2.181	1.951
380.0	174.8	325.1	342.2	468.7	482.3	404.5	444.3	359.8	427.7	420.3	351.9	352.8	325.8	362.6	366.5	434.3	384.6	387.2	374.9	360.4	332.4	321.3	321.0	320.2	302.6	289.1	286.6	430.8	411.1	194.1	137.3	102.5	78.75	62.10	127.9	 1350	 7208	 5474	347.4	5.949	4.250	2.750	2.165	2.106	1.908	1.730	1.188	2.152	1.735	1.760	2.177
385.0	183.1	424.0	267.0	325.5	415.1	472.2	460.7	357.1	407.9	399.0	375.2	371.2	325.5	392.8	345.1	407.7	396.3	412.7	386.9	349.2	345.8	326.8	327.6	341.4	323.5	309.1	301.6	312.7	443.8	334.4	165.5	131.5	100.4	76.53	62.23	121.7	 1191	 6958	 4719	331.0	7.880	4.070	3.297	2.339	2.404	1.893	1.481	2.264	2.144	1.718	1.393
390.0	255.4	241.1	282.6	350.8	403.6	468.7	425.4	400.5	382.5	434.7	359.0	367.7	366.2	378.9	405.5	403.8	401.8	398.8	399.0	356.2	350.9	335.9	340.2	356.8	349.8	336.7	311.1	307.7	341.4	433.8	295.1	165.6	122.3	94.97	72.58	57.35	108.7	 1168	 6008	 4282	299.5	8.224	4.425	2.128	2.841	2.677	1.481	2.461	0.800	1.803	1.589
395.0	131.2	250.2	369.7	407.9	346.9	414.0	392.7	484.8	383.3	429.3	358.7	377.0	386.2	365.1	386.1	384.1	396.6	373.4	376.8	350.4	366.8	374.5	371.6	391.5	359.8	362.4	334.4	334.2	300.7	340.4	421.3	239.6	158.9	126.2	88.38	66.31	55.49	108.9	 1022	 5622	 4058	288.8	5.923	3.400	3.644	3.215	1.772	2.085	1.821	2.698	2.462
400.0	264.8	276.0	452.4	412.0	466.7	432.8	437.4	460.2	425.1	397.9	372.5	362.6	365.2	373.5	354.7	419.9	400.7	400.1	392.6	368.4	397.9	384.8	374.7	391.2	372.0	382.3	362.8	337.1	313.4	291.7	371.6	364.9	216.4	152.4	117.7	89.91	63.98	48.48	94.23	974.6	 5135	 3759	231.8	4.972	4.437	3.167	2.356	2.338	2.673	2.495	1.409
405.0	145.5	228.2	365.5	402.6	377.8	410.4	505.5	421.5	395.2	418.4	420.0	392.9	387.2	370.5	376.0	432.9	394.6	403.2	401.8	395.2	360.5	366.6	381.6	384.9	392.9	388.2	370.0	355.4	323.2	306.9	298.5	372.4	337.2	197.2	128.7	102.6	76.61	60.84	45.75	91.27	872.5	 4851	 3387	207.6	5.366	4.020	3.012	3.106	2.377	1.797	1.815
410.0	263.4	227.1	415.5	399.1	423.2	476.1	429.0	433.6	454.8	439.7	426.4	414.0	411.7	420.8	395.7	414.7	444.3	404.8	368.6	392.8	389.6	385.2	389.4	392.8	382.3	390.9	372.9	364.7	347.7	335.3	288.5	300.2	383.5	289.0	164.5	128.4	96.62	73.03	47.76	38.14	80.60	851.9	 4606	 3134	183.6	5.431	3.966	2.958	2.485	3.387	2.571
415.0	174.9	298.0	348.4	426.0	397.1	425.1	417.2	451.6	491.4	431.4	415.2	355.2	379.8	417.0	434.3	421.5	431.2	397.1	380.6	347.9	383.5	383.6	387.0	376.6	383.2	378.8	381.0	378.8	347.1	336.6	286.4	277.9	318.4	369.9	237.1	142.7	107.8	83.67	59.20	40.86	35.22	74.70	801.0	 4303	 2926	184.3	4.965	3.511	3.215	3.001	1.818
420.0	223.4	292.1	253.1	417.1	380.4	359.5	433.3	437.2	457.2	437.0	446.2	414.3	429.6	445.1	422.0	445.7	442.9	397.7	375.7	356.5	364.0	367.7	366.1	394.4	382.1	386.6	373.8	367.5	349.5	327.5	317.7	291.1	274.4	309.5	339.6	196.3	117.0	99.97	70.53	52.32	39.18	29.00	72.29	764.8	 4081	 2911	149.9	4.067	3.783	3.649	3.410
425.0	237.6	292.7	360.7	374.2	377.5	392.3	417.8	426.9	431.9	405.5	417.2	418.9	441.4	412.1	412.0	437.6	429.4	405.6	374.6	350.4	341.6	362.9	362.8	370.2	391.6	380.6	383.0	365.6	363.0	332.1	316.8	298.7	278.4	261.8	338.6	278.4	156.4	109.1	84.24	59.39	45.92	34.08	27.40	64.09	720.1	 4128	 2532	131.0	4.774	4.294	2.250
430.0	139.1	188.9	394.1	341.6	351.3	437.7	400.9	403.9	424.4	419.5	394.8	392.4	407.4	407.5	442.0	432.1	421.7	401.4	354.9	318.6	312.5	335.3	342.3	344.8	359.7	361.3	358.6	359.0	348.0	338.0	335.0	313.8	279.8	262.1	272.0	302.0	222.3	120.5	91.00	67.19	51.51	39.02	27.33	21.99	62.88	732.1	 3698	 2423	115.7	4.804	3.782
435.0	208.9	225.0	265.5	392.9	319.8	363.4	425.2	446.0	433.8	438.4	422.2	389.1	416.7	400.9	422.9	424.9	426.5	384.7	360.4	322.8	318.8	311.5	334.7	345.0	347.0	351.2	366.2	363.7	350.1	344.7	321.6	309.1	285.4	264.7	241.9	242.8	273.1	179.9	104.9	75.71	62.76	46.21	36.25	28.49	22.70	65.23	663.6	 3655	 2283	114.2	4.305
440.0	120.7	356.1	350.8	244.8	372.8	382.2	423.9	402.3	412.7	365.9	409.9	364.1	377.4	386.8	401.6	450.1	425.2	363.5	328.0	321.9	294.3	307.5	304.0	325.4	316.2	351.0	352.7	336.9	335.7	320.3	317.0	302.4	292.3	264.4	233.7	203.5	223.6	229.2	138.1	85.07	69.76	55.21	39.18	31.01	23.07	21.03	53.58	666.6	 3551	 2187	100.7
445.0	184.5	263.6	285.7	242.3	352.6	396.3	356.6	388.4	363.7	397.6	412.5	394.2	394.8	397.1	425.7	435.9	410.6	370.8	322.3	294.6	291.8	287.9	301.4	314.6	327.5	320.3	342.9	320.7	327.3	296.4	295.5	290.5	276.0	260.4	230.6	205.1	183.6	213.4	183.8	108.2	70.01	56.37	43.24	37.35	27.06	22.75	19.36	54.64	682.8	 3362	 1919
450.0	184.0	220.8	295.0	248.9	261.6	313.0	318.1	351.7	377.8	401.6	383.1	389.4	385.4	404.5	417.0	401.1	395.5	341.6	309.6	277.6	295.7	274.3	273.6	280.0	309.3	310.2	310.7	312.1	301.5	292.9	286.0	277.1	269.8	251.2	234.2	199.3	160.4	160.4	188.1	144.1	74.94	58.78	46.75	39.31	31.48	26.11	23.54	17.22	56.26	629.3	 3394
455.0	194.0	167.3	204.3	352.1	254.0	409.8	361.6	343.0	359.8	343.4	381.3	379.8	356.9	351.5	385.0	389.9	362.3	311.9	293.0	261.7	257.2	254.1	258.7	270.2	271.1	287.4	302.5	292.2	287.0	292.9	273.8	265.6	258.3	243.1	216.6	202.9	173.6	148.4	146.6	177.5	118.2	70.01	54.96	46.34	36.34	30.01	27.04	16.94	16.36	50.60	634.6
460.0	171.8	100.1	267.3	305.8	232.6	280.1	333.8	284.9	362.4	315.5	342.9	343.5	370.7	333.9	357.9	367.1	352.0	320.4	280.9	243.2	233.7	226.2	232.6	248.4	253.4	268.3	265.3	274.8	281.5	266.6	267.9	251.8	247.2	226.4	221.1	188.9	158.0	141.5	109.8	137.1	140.1	86.27	59.59	45.15	38.86	33.46	23.96	19.42	16.34	16.37	52.23
465.0	173.9	168.8	300.2	178.8	254.4	207.0	278.2	262.7	300.9	309.5	321.0	311.7	279.9	319.2	345.2	320.4	340.9	283.4	270.3	216.7	216.9	204.7	211.2	224.2	230.6	222.9	240.3	248.2	251.7	250.1	242.1	231.2	225.4	217.3	210.8	180.0	156.9	137.1	112.7	105.1	126.9	118.7	70.13	48.43	43.16	34.40	27.98	23.67	18.75	14.69	13.14
470.0	85.20	140.2	223.6	156.8	289.3	261.1	256.1	249.2	240.3	253.9	247.5	286.7	292.4	300.3	289.9	292.7	305.6	272.1	243.5	210.4	190.2	212.1	201.1	195.6	203.4	208.1	214.0	223.1	232.9	219.0	229.5	219.6	210.4	203.0	190.5	179.6	152.8	129.1	112.8	95.31	87.29	118.0	95.38	59.00	48.12	35.05	31.16	26.23	21.00	17.37	13.14
475.0	98.67	152.8	195.1	270.4	233.5	239.7	241.2	234.3	255.9	257.8	263.7	263.5	250.7	289.4	305.1	295.3	272.4	226.1	204.9	191.3	187.7	170.2	182.4	176.6	181.0	192.5	198.7	201.0	192.7	195.7	190.5	208.2	193.9	181.5	173.9	153.1	134.6	128.5	112.1	94.48	84.45	83.61	113.5	75.38	47.71	41.64	30.35	29.61	22.66	17.87	13.64
480.0	62.80	193.3	144.1	227.1	158.3	218.7	239.0	217.8	221.9	236.8	210.8	249.7	247.6	272.2	269.1	281.4	254.6	217.2	195.4	165.0	175.5	171.6	166.3	167.1	171.0	169.9	173.0	178.8	191.3	182.3	182.6	186.5	173.1	169.4	166.7	147.4	132.4	112.8	104.7	99.90	77.05	77.85	83.84	89.86	54.72	41.83	32.59	27.44	22.52	20.04	14.73
485.0	150.8	46.59	151.7	126.7	207.4	149.1	214.3	223.7	235.2	247.2	220.8	257.6	226.9	244.5	236.3	267.1	215.9	214.0	179.0	161.6	157.3	152.1	152.0	153.0	156.8	157.6	153.5	163.3	160.6	164.1	170.8	168.2	158.5	161.7	157.0	149.8	128.4	116.3	102.3	88.02	77.70	77.18	68.65	89.96	77.14	46.75	33.07	30.73	22.66	20.27	17.09
490.0	79.95	103.9	198.9	174.5	195.0	187.1	175.1	204.3	223.2	180.1	241.4	197.3	200.0	238.7	219.2	232.1	237.9	191.8	186.7	144.0	139.5	142.5	143.5	145.0	141.4	143.3	144.7	155.0	144.4	151.9	145.5	142.9	147.9	144.2	135.1	128.2	119.0	109.3	92.92	86.69	73.59	69.20	64.71	64.66	77.47	63.65	37.70	28.57	23.59	20.78	15.31
495.0	107.2	149.4	127.9	182.4	148.7	179.7	201.7	190.3	204.7	169.7	191.5	195.9	173.0	227.6	208.4	224.4	198.5	175.5	164.0	134.6	118.3	144.9	129.8	134.0	137.2	123.1	133.2	143.3	132.9	129.9	139.3	138.2	140.7	139.7	132.4	128.9	111.8	102.0	94.02	84.57	72.94	67.91	61.31	56.39	60.36	70.56	52.81	33.44	26.01	21.49	20.52
500.0	83.68	58.47	106.6	121.1	194.0	138.2	173.4	144.8	158.7	168.0	157.3	167.6	179.4	176.5	215.6	196.5	188.9	156.3	151.3	122.1	123.6	118.2	121.1	116.0	113.9	117.0	118.4	125.9	126.5	133.4	127.0	130.0	126.6	126.8	125.0	116.9	102.8	97.54	86.52	78.55	71.92	65.53	58.91	50.20	51.35	58.40	62.36	38.96	26.49	24.59	20.33
505.0	231.9	53.78	159.3	115.3	108.5	131.9	140.3	172.5	162.0	176.5	150.6	153.0	158.8	180.0	181.5	184.0	179.5	160.9	135.1	115.9	111.8	108.8	105.5	106.2	111.7	110.0	107.8	109.3	113.2	117.1	113.9	118.5	117.4	118.4	112.7	107.3	99.40	90.69	83.12	75.83	67.33	64.81	56.40	47.03	43.12	40.54	54.79	50.15	32.80	25.67	19.75
510.0	93.81	49.38	147.0	106.1	121.3	90.32	172.3	145.0	123.5	142.6	142.6	153.5	168.7	150.7	179.9	167.2	162.5	138.9	116.2	113.7	96.67	104.3	96.82	92.69	92.23	100.1	102.5	111.1	101.3	102.8	98.91	110.7	111.4	108.5	99.09	92.95	93.02	79.62	77.13	71.97	61.71	57.08	52.48	47.32	40.92	38.78	40.61	54.46	43.10	29.84	21.33
515.0	44.78	49.65	46.86	75.89	125.5	144.0	148.7	96.12	119.2	117.4	126.8	125.8	149.2	148.6	154.9	156.4	161.2	122.6	110.2	94.90	91.03	88.70	86.19	89.33	94.21	89.42	92.23	91.88	92.11	88.65	96.95	93.82	95.30	99.17	95.00	85.11	84.02	82.20	69.90	64.18	55.43	56.06	47.34	42.46	36.56	33.61	31.72	40.45	47.13	33.89	22.29
520.0	55.73	45.53	50.28	84.42	40.01	94.60	96.21	81.03	118.5	111.7	112.5	113.9	144.8	140.1	135.6	153.1	138.7	121.1	92.66	89.75	78.61	70.93	75.97	74.01	84.49	73.95	81.91	78.45	80.28	76.59	84.20	85.05	86.40	83.50	85.67	87.53	78.48	67.51	68.21	58.95	54.68	48.65	48.86	40.33	37.65	34.59	31.30	29.70	39.31	38.99	25.54
525.0	45.21	40.02	76.76	83.42	70.21	102.5	125.0	127.4	88.91	107.3	115.9	114.4	101.7	125.0	135.2	123.7	115.2	111.1	83.64	76.69	76.92	54.04	70.67	65.36	69.09	71.58	72.74	71.46	74.10	79.83	74.81	76.98	77.76	72.42	76.92	75.43	69.68	65.28	58.56	50.68	47.32	43.55	37.97	36.72	33.42	31.71	29.22	25.56	28.27	39.43	34.54
530.0	18.94	37.64	62.93	40.60	73.93	96.95	82.39	86.55	74.20	85.71	106.6	90.45	108.3	112.1	107.8	114.9	104.1	89.27	78.82	66.47	67.84	57.84	56.02	63.86	60.06	60.73	61.46	65.99	64.64	59.47	65.80	66.67	68.35	71.43	63.66	66.43	64.96	60.09	55.61	46.89	48.88	39.84	37.27	33.70	29.97	26.39	29.40	24.27	23.12	26.90	34.96
535.0	67.87	73.68	57.20	81.86	70.72	55.96	97.98	74.99	78.88	60.80	84.38	89.15	87.42	83.62	108.5	96.82	96.13	67.06	70.00	64.73	57.64	52.32	47.94	53.42	55.04	53.03	53.42	60.95	57.26	53.45	59.49	58.12	60.17	58.10	60.00	57.27	53.10	52.24	47.47	44.26	40.85	35.15	36.74	30.46	28.70	27.32	24.82	21.00	22.47	20.12	28.49
540.0	67.52	66.75	10.02	53.48	58.76	65.62	62.12	93.31	70.79	81.52	75.51	69.16	92.03	98.79	115.0	92.11	95.52	70.73	56.82	57.21	51.54	48.58	41.27	45.19	45.77	43.92	47.72	47.46	50.27	49.13	52.21	51.76	54.73	54.12	56.38	49.39	47.14	50.88	42.41	39.03	36.66	33.04	35.91	28.97	26.13	25.00	22.42	21.58	19.39	17.49	18.88
545.0	11.42	14.25	54.95	43.41	72.18	84.33	79.80	69.88	60.76	59.78	89.87	53.18	68.43	81.93	81.35	108.8	77.49	66.60	53.20	44.70	42.32	40.38	45.74	41.17	43.49	42.07	42.25	41.22	46.26	45.99	46.70	45.33	49.19	47.31	46.09	44.50	48.80	39.75	37.09	35.20	30.89	31.24	28.72	25.56	21.60	23.15	20.50	20.04	17.13	14.93	15.20
550.0	40.06	49.32	63.64	28.28	71.25	44.39	63.42	50.02	74.00	44.83	63.46	60.62	59.95	69.48	78.79	121.6	94.00	57.38	40.14	36.24	38.12	36.27	41.01	34.06	42.45	38.07	40.19	41.50	40.62	38.11	41.54	40.85	46.28	45.17	45.66	39.86	39.07	38.12	31.70	30.39	32.11	29.04	22.33	25.36	21.65	19.81	20.44	16.84	15.31	15.22	13.16
