Sample:	'SLABO1-5-5-320
File name:	1N1.FD3
Run Date:	16:46:52, 08/15/2022
Operator:	Administrator
Comment:	'

Instrument
Model:	F-7000 FL Spectrophotometer
Serial Number:	2354-007
ROM Version:	5J14000 06

Instrument Parameters
Measurement type:	3-D Scan
Data mode:	Fluorescence
EX  Start WL:	200.0 nm
EX  End WL:	450.0 nm
EX Sampling Interval:	5.0 nm
EM  Start WL:	280.0 nm
EM  End WL:	550.0 nm
EM Sampling Interval:	5.0 nm
Scan speed:	12000 nm/min
EX Slit:	5.0 nm
EM Slit:	5.0 nm
PMT Voltage:	700 V
Response:	Auto 
Corrected spectra:	Off
Shutter control:	On
Contour interval:	25.000

Peak integration
Integration method:	Rectangular
Sensitivity:	1
Threshold:	1.000

Peaks
No.	ApexEX/EM(nm)	Height(Data)
1	205.0/310.0	679.8
2	210.0/545.0	60.15
3	215.0/470.0	351.1
4	215.0/535.0	107.3
5	220.0/410.0	880.2
6	220.0/495.0	273.2
7	220.0/530.0	174.3
8	225.0/310.0	 1009
9	225.0/330.0	 1028
10	225.0/355.0	772.3
11	225.0/425.0	931.0
12	225.0/505.0	225.3
13	225.0/515.0	209.9
14	230.0/315.0	 1035
15	230.0/325.0	 1031
16	230.0/335.0	 1073
17	230.0/380.0	822.1
18	230.0/405.0	888.5
19	230.0/415.0	876.2
20	235.0/360.0	769.8
21	235.0/400.0	910.2
22	235.0/410.0	895.9
23	235.0/420.0	915.4
24	235.0/430.0	850.0
25	235.0/505.0	258.0
26	235.0/530.0	161.6
27	235.0/545.0	113.1
28	240.0/385.0	803.2
29	240.0/520.0	185.5
30	245.0/425.0	858.3
31	245.0/440.0	774.3
32	245.0/525.0	186.9
33	250.0/430.0	786.3
34	255.0/350.0	518.9
35	255.0/425.0	778.9
36	260.0/375.0	585.0
37	260.0/450.0	672.3
38	260.0/485.0	386.4
39	270.0/440.0	727.9
40	270.0/510.0	272.4
41	275.0/305.0	 1621
42	275.0/445.0	710.9
43	280.0/310.0	 1769
44	280.0/375.0	750.5
45	285.0/315.0	 1427
46	285.0/370.0	727.5
47	285.0/400.0	830.7
48	285.0/415.0	839.4
49	290.0/405.0	861.1
50	300.0/335.0	666.9
51	305.0/340.0	662.5
52	310.0/345.0	604.9
53	310.0/415.0	914.7
54	315.0/350.0	559.8
55	320.0/360.0	549.2
56	325.0/365.0	601.5
57	330.0/370.0	621.7
58	335.0/380.0	605.1
59	340.0/385.0	645.4
60	345.0/390.0	662.5
61	350.0/395.0	635.8
62	355.0/305.0	3.968
63	355.0/405.0	608.4
64	360.0/285.0	1.727
65	360.0/410.0	585.6
66	365.0/415.0	554.2
67	375.0/310.0	2.980
68	375.0/430.0	432.2
69	380.0/330.0	4.010
70	380.0/435.0	383.5
71	390.0/450.0	262.6
72	395.0/335.0	2.809
73	405.0/325.0	2.675
74	405.0/470.0	164.1
75	410.0/475.0	146.1
76	415.0/335.0	2.402
77	415.0/480.0	127.1
78	420.0/490.0	112.0
79	425.0/495.0	94.02
80	430.0/500.0	87.09
81	435.0/375.0	3.532
82	440.0/515.0	68.38
83	445.0/315.0	3.694
84	445.0/520.0	57.62

Data Points
	200.0	205.0	210.0	215.0	220.0	225.0	230.0	235.0	240.0	245.0	250.0	255.0	260.0	265.0	270.0	275.0	280.0	285.0	290.0	295.0	300.0	305.0	310.0	315.0	320.0	325.0	330.0	335.0	340.0	345.0	350.0	355.0	360.0	365.0	370.0	375.0	380.0	385.0	390.0	395.0	400.0	405.0	410.0	415.0	420.0	425.0	430.0	435.0	440.0	445.0	450.0
280.0	40.34	57.60	-19.40	35.11	4.545	25.27	16.43	-2.493	24.32	15.28	34.06	75.27	55.08	19.50	14.68	211.4	 1714	 1099	58.76	4.377	4.359	3.703	3.518	1.276	0.273	1.890	1.800	1.020	0.419	0.672	0.892	0.746	1.317	0.315	0.479	0.108	0.598	0.432	0.635	0.608	0.270	0.412	0.568	0.077	0.028	0.182	0.387	0.080	0.644	0.679	0.466
285.0	86.25	73.49	108.7	81.45	98.34	167.0	62.88	66.19	56.33	76.84	91.52	124.7	219.4	122.5	83.26	96.25	571.9	 4359	 3521	328.7	7.577	5.489	1.940	1.285	2.008	1.342	1.489	1.493	1.218	0.747	0.689	0.752	1.727	0.528	0.677	1.560	1.001	0.651	0.416	1.575	0.779	1.015	0.640	0.761	0.302	0.485	0.772	0.185	0.596	1.537	0.810
290.0	279.5	241.2	253.4	270.7	288.1	314.1	244.6	117.7	86.28	123.1	182.8	180.1	230.9	449.9	332.9	305.3	280.5	 1278	 8040	 5781	450.3	8.657	5.218	4.094	3.155	2.589	1.838	2.218	0.879	0.774	1.580	0.459	0.235	0.930	0.995	0.919	0.799	1.396	1.323	1.072	1.385	1.090	0.460	0.644	0.715	1.016	1.530	2.042	0.927	1.706	0.938
295.0	307.5	425.4	283.3	400.6	577.5	667.0	524.8	276.7	150.8	158.3	213.6	243.5	268.3	531.0	860.0	632.4	502.2	363.7	 2001	9999.9	 7921	600.2	10.22	7.050	5.378	2.489	3.264	2.889	1.803	1.715	1.312	1.523	1.651	0.531	1.131	1.329	0.940	0.629	1.457	1.008	1.536	0.405	1.593	1.143	1.027	1.275	1.207	1.055	1.079	2.535	2.102
300.0	669.4	591.5	475.5	574.4	812.3	865.9	712.4	373.5	238.3	198.5	232.2	282.9	399.2	551.5	 1086	 1299	898.8	542.7	332.5	 2380	9999.9	 9941	635.0	9.034	7.031	7.028	3.627	3.562	1.415	2.133	1.907	1.677	1.104	1.396	1.225	1.257	0.399	1.465	1.543	1.798	1.879	1.881	0.835	1.640	1.760	1.153	1.140	1.942	2.082	3.173	3.298
305.0	781.1	671.4	539.7	580.1	720.2	975.4	823.1	508.1	286.5	263.6	305.1	347.5	490.8	651.2	 1018	 1621	 1434	736.1	262.4	250.2	 2512	9999.9	9999.9	736.6	12.06	7.895	5.048	3.248	3.325	2.386	1.660	3.968	1.458	1.712	1.418	0.862	1.370	1.794	1.042	1.991	2.293	1.532	2.232	2.014	1.583	1.166	1.819	2.076	2.019	2.108	2.873
310.0	528.7	679.8	474.8	629.3	852.1	 1009	899.9	551.6	309.5	268.6	348.0	396.8	531.7	745.7	 1106	 1348	 1769	 1075	316.4	148.1	213.7	 2826	9999.9	9999.9	752.1	11.35	7.922	7.413	4.675	4.145	3.206	1.997	2.649	0.817	2.338	2.980	0.958	1.544	1.424	1.830	2.061	0.998	0.897	1.343	1.985	1.371	2.598	2.106	2.092	2.585	3.545
315.0	669.0	648.8	496.6	681.2	780.8	 1008	 1035	614.6	386.3	340.9	375.5	434.0	500.8	694.1	 1016	 1292	 1353	 1427	532.3	168.9	108.3	237.4	 3090	9999.9	9999.9	647.1	14.78	11.45	5.134	5.180	3.195	2.531	1.948	2.260	0.759	1.828	1.125	1.815	2.313	2.068	2.315	1.690	1.491	2.016	1.898	1.334	1.785	1.664	2.083	3.694	3.195
320.0	632.9	638.4	540.3	690.3	832.5	964.2	946.2	633.3	411.9	356.1	429.6	461.5	560.4	698.3	 1038	 1203	 1209	 1081	953.5	311.2	126.9	92.60	247.0	 3000	9999.9	9999.9	631.6	13.22	7.895	7.071	5.317	4.408	4.139	3.127	2.094	2.144	1.324	1.861	1.399	1.284	1.956	1.443	1.487	1.738	1.338	1.571	1.918	2.696	2.289	2.855	3.828
325.0	533.0	562.5	338.7	624.1	899.9	 1022	 1031	713.6	492.0	394.1	427.1	479.1	594.6	676.9	937.9	 1080	 1098	880.5	813.9	728.0	228.9	123.9	96.06	249.3	 3008	9999.9	9999.9	648.6	11.75	8.201	6.365	7.001	3.934	3.279	1.663	1.359	1.311	1.689	2.312	2.608	1.074	2.675	1.376	1.434	1.853	2.846	2.764	1.973	2.616	3.005	3.622
330.0	443.0	465.4	457.9	525.7	776.9	 1028	916.1	717.7	493.2	419.2	492.1	481.7	538.6	683.6	825.2	 1046	 1078	860.0	569.5	703.7	570.5	184.1	110.0	96.39	251.8	 2792	9999.9	9999.9	618.2	13.62	8.254	7.583	5.347	3.056	2.879	1.661	4.010	1.967	1.928	1.788	0.839	2.536	1.764	1.500	1.190	1.354	2.048	2.197	1.487	2.108	3.174
335.0	491.9	374.5	443.4	502.4	761.4	934.9	 1073	714.5	546.3	505.6	448.8	548.3	543.0	678.7	807.9	951.0	984.9	831.1	574.2	435.2	666.9	462.5	152.4	116.5	88.94	236.5	 2770	9999.9	9999.9	619.7	12.94	8.277	6.097	5.544	3.308	2.624	2.283	2.443	1.447	2.809	1.479	0.974	1.907	2.402	0.662	1.184	1.997	1.592	2.592	2.600	3.398
340.0	352.9	297.8	432.8	437.0	628.7	968.3	946.7	767.5	633.0	508.2	511.1	532.5	493.3	604.2	748.9	916.5	949.1	858.2	602.0	418.2	406.6	662.5	363.8	152.6	115.1	89.50	227.7	 2628	9999.9	9999.9	645.1	14.74	8.514	7.910	5.908	5.378	4.696	5.209	1.882	2.126	1.378	2.337	2.098	1.383	1.488	2.360	2.453	2.274	2.421	3.075	4.131
345.0	298.5	211.9	362.2	508.1	641.0	886.3	920.4	695.9	601.4	533.9	483.5	473.8	512.6	574.7	725.6	852.5	824.9	844.2	619.5	459.1	353.7	429.1	604.9	289.8	141.6	116.2	97.32	222.5	 2494	9999.9	9999.9	661.6	15.26	8.857	7.108	4.681	3.473	4.169	2.279	1.516	1.627	2.031	1.066	1.261	2.028	1.292	1.008	1.537	2.083	2.932	3.197
350.0	199.4	290.9	275.1	500.7	520.0	720.4	846.1	797.2	643.2	566.5	492.7	518.9	503.4	566.9	738.5	747.0	845.5	773.7	603.2	485.4	379.4	323.2	450.7	559.8	241.0	136.2	112.1	102.5	219.3	 2434	9999.9	9999.9	632.6	12.49	6.712	6.928	4.338	6.354	3.675	2.455	1.412	1.884	1.564	2.061	1.339	1.998	1.473	2.253	1.620	2.270	3.707
355.0	156.5	289.9	322.7	386.5	568.8	772.3	763.1	755.1	668.4	524.0	543.5	484.3	511.0	594.9	695.7	703.0	806.5	761.8	626.8	506.2	432.4	348.4	343.9	521.8	499.0	229.1	153.5	125.9	106.2	223.2	 2321	9999.9	9999.9	624.3	13.34	10.94	6.996	6.113	3.183	2.061	1.696	2.153	1.800	1.963	1.855	2.560	1.864	1.305	1.572	2.050	3.026
360.0	220.2	303.6	286.5	464.5	548.6	705.1	766.3	769.8	681.1	587.3	552.7	501.7	491.6	571.0	630.8	719.5	765.4	730.8	652.7	539.2	456.0	396.5	377.3	355.2	549.2	450.6	219.2	164.4	123.8	106.7	207.2	 2400	9999.9	9999.9	551.8	16.85	8.072	7.767	5.409	3.057	2.195	1.703	2.886	2.278	1.501	1.662	2.236	1.633	2.601	2.531	2.559
365.0	158.7	306.8	280.2	456.8	531.3	728.0	744.9	747.7	711.7	619.1	519.3	492.1	527.4	537.7	609.9	686.4	736.5	681.1	646.8	560.6	497.4	435.5	411.3	399.1	402.3	601.5	413.3	217.0	161.7	121.2	96.97	216.8	 2423	9999.9	 9918	569.1	12.47	12.13	7.494	4.989	3.021	2.784	2.385	1.610	1.686	1.629	1.651	2.271	1.925	2.829	2.690
370.0	116.7	213.1	396.7	412.1	606.2	543.4	755.7	695.5	706.8	629.6	539.3	497.5	488.5	535.6	605.5	706.6	718.2	727.5	653.0	575.0	531.9	502.6	451.9	435.3	423.3	487.2	621.7	372.4	244.8	162.7	126.8	102.2	219.5	 2314	9999.9	 9578	510.0	16.61	8.797	6.134	4.002	2.642	2.634	2.167	1.529	2.876	1.934	1.799	1.871	2.257	2.392
375.0	195.7	163.1	313.4	347.6	582.4	614.6	662.2	768.0	705.8	613.6	583.8	537.2	585.0	539.8	592.3	617.8	750.5	690.1	688.4	615.8	597.9	557.9	533.4	504.8	506.2	450.6	550.0	583.7	349.0	237.4	184.5	128.1	101.7	212.6	 2233	9999.9	 9093	620.1	11.03	9.192	6.801	4.072	3.049	2.590	2.460	2.320	2.352	3.532	2.286	2.514	2.204
380.0	154.2	253.0	392.5	364.3	554.9	694.2	822.1	798.6	700.8	688.6	635.3	558.8	551.7	544.8	600.4	648.2	674.9	728.2	668.5	670.7	616.0	638.3	621.3	587.5	555.6	524.8	500.9	605.1	563.1	306.0	230.0	178.5	127.1	94.05	202.9	 2234	9999.9	9999.9	458.9	11.35	8.172	5.662	4.304	3.371	2.895	2.542	2.877	2.524	2.142	2.016	2.414
385.0	107.2	237.8	476.0	511.7	648.1	648.4	762.2	784.8	803.2	679.3	691.6	579.3	538.7	584.4	567.1	615.5	703.6	739.1	716.2	713.7	696.8	691.9	677.9	643.4	614.0	559.6	539.7	519.2	645.4	519.2	308.3	234.4	170.2	130.7	93.68	195.6	 2046	9999.9	 8281	456.2	11.74	6.613	5.062	4.957	3.485	2.960	3.829	2.153	2.095	2.098	2.490
390.0	136.0	206.6	409.9	468.1	526.5	718.4	723.2	756.2	775.7	712.5	644.7	646.9	559.7	591.7	611.1	617.6	743.0	742.4	769.0	744.8	757.4	755.0	751.9	728.1	687.2	634.4	606.2	551.8	562.3	662.5	461.3	293.3	234.6	160.3	116.0	90.49	182.8	 2626	9999.9	 7754	391.6	11.84	7.830	4.862	4.856	3.143	1.934	3.738	2.160	3.192	3.539
395.0	209.1	286.0	555.7	554.8	599.7	790.9	823.3	826.5	752.6	796.5	706.4	685.5	630.7	567.9	658.9	673.5	755.0	773.0	761.3	793.8	803.7	798.6	779.1	774.3	735.6	704.7	654.1	616.6	569.4	588.3	635.8	420.5	281.0	216.1	157.7	104.8	86.34	220.3	 1867	9999.9	 7430	389.1	10.60	8.040	4.751	4.545	2.899	3.138	3.192	3.508	3.887
400.0	222.0	341.1	464.3	620.7	679.8	768.3	848.2	910.2	847.2	811.2	766.5	665.2	615.8	616.0	651.3	655.5	743.9	830.7	806.0	831.3	835.0	834.1	843.1	826.2	788.9	745.7	718.3	643.9	612.4	575.5	601.0	587.6	380.6	270.6	193.2	141.0	99.40	78.08	168.2	 1835	9999.9	 6802	314.9	10.69	8.073	5.766	4.019	3.396	3.811	4.444	3.379
405.0	116.2	366.6	537.8	604.2	766.3	644.3	888.5	734.2	849.6	855.1	774.1	701.0	692.1	671.0	642.6	744.2	770.3	789.4	861.1	857.1	843.0	863.6	871.5	859.4	802.4	784.4	732.3	693.9	650.6	573.7	555.5	608.4	531.0	343.5	233.1	175.2	118.9	83.53	68.77	157.3	 1724	9999.9	 5885	295.2	10.46	6.894	5.837	3.853	3.653	4.669	3.481
410.0	221.2	270.3	395.3	753.1	880.2	726.7	857.9	895.9	827.9	861.1	786.9	729.5	699.0	683.9	714.6	736.4	737.2	804.4	837.6	836.2	861.7	882.2	891.0	874.0	836.8	812.9	745.0	719.9	652.2	626.4	547.7	533.3	585.6	461.9	288.8	215.4	156.8	109.9	69.81	62.89	146.1	 1734	 9048	 6144	245.3	10.29	7.815	4.208	3.865	5.209	4.627
415.0	168.2	445.3	560.2	666.9	803.9	865.8	876.2	837.6	873.0	837.5	810.7	755.1	673.3	651.1	656.6	687.9	823.8	839.4	820.6	858.0	878.9	901.7	914.7	891.0	845.9	797.1	778.8	718.2	676.7	635.7	582.3	542.6	505.7	554.2	369.1	244.6	188.7	126.1	94.75	67.95	56.35	138.5	 1554	 9637	 5319	254.1	8.659	5.692	5.054	4.708	4.186
420.0	240.8	416.0	417.4	642.6	758.9	782.6	866.2	915.4	882.5	845.7	732.3	721.1	705.9	680.8	660.6	739.5	781.7	811.1	804.5	808.1	843.4	889.4	880.1	878.1	810.9	797.5	750.4	728.9	675.1	615.0	574.1	526.9	471.4	494.8	474.1	306.8	210.2	155.9	104.5	79.96	54.12	51.26	126.9	 1733	 8742	 4797	207.5	9.767	6.107	5.323	4.262
425.0	256.4	308.7	479.3	682.6	686.4	931.0	822.0	781.9	796.0	858.3	730.6	778.9	708.1	719.4	698.0	762.0	776.1	786.9	788.6	762.4	780.2	818.7	826.5	834.5	807.0	772.1	709.0	684.5	665.3	628.7	569.6	546.5	491.4	433.5	473.7	399.1	252.0	169.6	125.2	91.24	72.45	55.08	43.67	135.6	 1534	 7631	 4447	175.4	8.778	6.614	4.358
430.0	268.6	283.2	433.5	560.9	784.8	755.8	833.7	850.0	786.5	770.0	786.3	725.6	738.2	682.9	706.1	693.4	760.3	744.5	736.2	748.6	784.0	789.6	797.5	779.3	749.8	740.2	695.0	639.1	635.0	599.8	576.6	542.8	469.0	429.5	403.0	432.2	318.5	191.6	136.8	104.6	76.63	60.18	43.65	40.72	120.2	 1350	 7198	 4081	156.3	9.634	6.072
435.0	195.8	277.2	375.9	505.8	694.7	671.3	798.4	765.8	774.4	752.1	741.0	685.2	732.8	645.7	701.2	711.2	756.3	721.5	727.3	716.7	724.9	745.7	759.5	742.1	725.7	680.8	673.7	644.2	600.1	594.1	545.3	530.5	482.7	437.8	379.2	364.9	383.5	253.9	167.6	118.4	87.90	70.07	55.85	41.71	35.70	106.3	 1289	 6589	 3746	156.1	8.023
440.0	149.5	196.2	399.2	488.7	604.0	662.7	706.1	760.4	712.8	774.3	753.7	681.2	682.5	690.8	727.9	698.8	716.0	708.7	717.3	679.3	727.1	714.4	718.6	683.1	684.0	651.4	644.8	582.2	579.9	555.6	536.7	491.7	468.0	433.3	377.9	333.4	338.5	327.5	191.0	134.2	94.64	76.69	64.06	47.33	36.70	31.22	102.0	 1204	 6589	 3947	139.3
445.0	196.0	327.5	350.3	416.3	590.7	557.1	595.3	665.5	690.6	687.2	687.9	657.5	643.7	646.2	677.6	710.9	698.1	646.4	660.7	655.6	628.0	648.9	673.5	651.2	628.1	586.7	592.2	555.1	542.8	529.4	500.4	485.1	453.7	415.2	384.0	323.8	282.2	299.0	247.5	158.2	107.6	85.34	68.92	54.43	43.05	32.86	34.78	96.37	 1246	 6721	 3197
450.0	76.75	264.0	420.8	466.1	591.4	610.8	535.8	599.8	627.7	659.7	663.1	669.1	672.3	593.1	603.5	665.5	665.7	635.5	595.7	592.6	572.7	600.3	608.0	596.4	569.0	572.9	533.4	517.2	501.3	466.3	467.4	450.7	427.7	395.3	367.1	331.3	273.6	242.4	262.6	203.8	120.6	95.95	78.17	63.69	49.47	38.49	31.82	28.90	96.73	 1260	 6103
455.0	146.1	233.5	310.0	386.2	488.9	469.2	522.1	560.0	560.0	588.8	579.2	595.0	627.0	575.4	606.4	625.4	565.5	600.0	530.2	514.0	535.7	552.7	539.1	536.3	511.1	486.9	479.0	480.9	460.6	450.3	435.0	406.7	403.0	371.3	343.2	311.6	254.6	231.5	219.7	220.2	159.0	98.52	77.32	69.03	58.36	44.97	36.41	33.53	27.72	99.53	 1146
460.0	167.8	146.8	267.7	346.7	417.6	419.5	576.1	605.4	547.7	588.4	519.0	576.1	573.3	573.2	591.0	622.3	580.0	552.8	498.2	502.2	499.4	503.6	501.1	485.9	474.9	456.7	442.0	450.6	416.8	403.6	416.4	394.5	389.7	356.8	336.6	296.9	252.2	212.7	173.3	196.6	189.7	130.8	87.31	75.45	58.66	49.99	44.82	33.73	27.33	27.49	87.45
465.0	134.7	124.1	273.0	313.2	329.8	438.1	509.2	433.1	541.9	522.1	526.8	531.9	515.6	526.7	545.8	561.6	496.3	504.3	464.3	440.7	436.7	433.6	438.4	447.7	417.8	417.1	409.0	414.3	370.4	381.4	377.8	353.1	345.9	330.4	310.4	278.7	247.0	200.9	182.8	156.1	181.7	157.6	99.61	78.61	65.47	54.45	49.26	35.77	32.43	24.79	23.62
470.0	81.42	210.7	263.2	351.1	307.7	347.2	380.0	430.7	386.4	487.3	441.1	486.2	441.2	491.2	497.0	508.9	471.3	466.2	418.8	379.3	394.6	391.2	392.6	383.7	387.5	353.0	359.3	355.0	339.1	347.8	331.7	327.9	316.3	300.9	297.4	261.4	236.4	201.2	183.2	154.4	142.1	164.1	132.3	86.05	67.51	62.05	51.71	41.91	33.18	27.53	22.64
475.0	89.34	215.1	190.7	217.8	327.1	344.5	360.4	397.6	402.8	405.7	456.2	433.9	439.0	431.5	479.0	479.6	442.8	395.7	394.8	359.5	356.0	359.9	350.8	347.5	338.7	321.2	339.0	308.1	300.8	301.3	300.8	305.2	292.8	276.0	264.7	243.0	219.8	190.7	169.3	145.0	133.1	130.4	146.1	98.38	71.68	61.81	51.28	44.06	34.44	32.50	23.68
480.0	32.58	124.7	257.2	301.0	325.6	321.2	300.3	331.7	383.4	372.7	412.3	390.6	376.9	456.7	415.4	436.4	415.1	396.6	330.0	300.6	305.1	316.5	299.8	304.9	303.1	291.7	281.3	280.6	263.7	272.4	275.0	268.6	266.1	258.9	233.7	222.6	209.2	185.1	163.3	136.7	125.3	106.4	119.4	127.1	83.91	62.93	51.67	46.01	40.59	33.07	25.55
485.0	42.39	101.8	132.5	217.4	283.4	192.5	294.0	275.3	322.4	383.7	352.7	376.0	386.4	377.4	363.2	409.8	387.2	353.6	297.7	274.8	295.3	285.8	272.7	272.9	281.7	261.7	252.9	253.3	251.5	256.8	244.2	245.1	237.7	233.7	219.1	210.7	197.3	171.7	149.0	131.4	124.5	107.0	92.37	114.8	108.9	74.65	55.06	47.51	40.56	32.79	29.27
490.0	35.26	128.9	160.3	255.4	178.5	244.9	277.8	278.3	271.0	331.1	299.3	336.9	380.5	369.9	366.2	384.8	348.1	325.2	283.9	246.8	253.4	244.2	250.1	258.1	247.2	245.8	229.6	235.4	240.6	223.3	236.7	222.8	229.1	228.3	209.8	196.2	183.9	154.6	152.3	130.9	116.3	108.4	90.14	95.70	112.0	93.74	61.15	49.77	43.71	34.64	29.85
495.0	45.09	90.21	110.0	116.7	273.2	230.6	256.1	253.1	277.8	292.7	287.7	293.1	352.3	337.7	355.0	342.4	319.0	308.6	260.6	264.3	237.0	232.2	227.7	217.3	214.7	215.4	206.1	194.2	210.1	208.9	211.9	191.7	203.0	195.5	191.8	184.7	173.1	154.0	129.9	121.8	112.0	100.2	93.87	85.19	87.13	94.02	74.20	47.44	43.82	38.89	31.51
500.0	77.42	124.3	66.31	137.1	219.4	191.2	254.6	229.0	256.2	263.6	249.5	262.3	283.0	324.6	306.6	318.4	314.7	295.2	253.1	220.7	209.4	207.4	216.4	190.2	189.7	192.6	193.6	185.5	180.3	185.3	179.4	180.8	175.2	176.8	182.4	169.9	155.6	147.3	127.2	113.9	103.0	99.39	90.13	80.31	79.33	80.72	87.09	61.15	44.31	42.97	32.59
505.0	85.33	97.36	64.49	117.6	185.9	225.3	186.0	258.0	235.3	234.6	243.3	268.7	262.5	307.2	251.6	293.6	280.2	269.2	224.1	228.4	204.7	197.5	183.0	180.4	171.2	183.4	160.0	171.4	172.5	171.4	161.3	163.2	167.1	168.2	161.2	157.2	136.8	129.5	118.2	109.3	96.93	93.87	87.73	72.41	70.35	69.75	80.48	72.66	53.35	39.30	32.54
510.0	106.4	85.40	88.93	97.94	184.5	147.3	181.9	171.3	213.4	247.1	256.2	241.2	250.4	247.7	272.4	268.5	248.0	240.1	208.0	192.5	186.2	178.9	173.1	160.4	161.0	161.7	154.3	142.1	148.0	141.7	150.0	150.8	156.9	152.6	150.6	139.7	128.8	119.1	104.4	104.3	97.03	86.02	80.24	74.44	67.91	61.31	63.43	70.41	60.61	41.74	33.27
515.0	117.3	44.76	116.1	70.28	143.3	209.9	188.6	191.7	176.2	168.7	202.5	209.7	245.0	234.2	238.6	248.1	244.4	231.6	193.0	169.6	150.7	155.4	149.4	143.3	148.4	145.1	133.7	136.6	135.4	131.8	136.6	131.4	136.5	131.4	135.3	119.9	123.5	102.9	102.8	96.01	87.31	81.64	75.22	67.09	60.77	55.49	56.92	58.74	68.38	45.20	34.84
520.0	27.55	104.5	111.5	52.38	91.42	100.3	176.4	144.7	185.5	158.0	165.0	174.7	205.6	180.0	246.5	233.4	205.6	184.2	175.8	143.1	143.7	136.2	137.4	129.4	125.5	123.8	117.1	120.9	122.4	115.5	121.9	120.9	115.3	117.4	119.7	108.4	111.6	91.51	100.9	86.96	77.34	73.47	70.40	66.59	60.31	51.42	49.29	49.54	56.05	57.62	40.34
525.0	33.25	36.91	77.64	44.52	80.13	91.25	163.7	131.4	171.3	186.9	145.7	175.9	189.3	185.0	177.5	197.5	181.0	173.2	156.3	139.1	126.8	128.7	115.2	123.0	112.2	102.3	110.8	110.2	113.0	117.2	106.9	109.5	107.6	112.1	109.5	100.8	95.98	90.25	86.26	71.66	70.05	64.35	64.89	60.02	55.85	46.51	44.62	42.20	46.15	56.26	43.07
530.0	77.91	31.54	61.57	85.85	174.3	83.98	115.9	161.6	117.1	138.5	148.5	147.1	152.8	172.2	176.2	169.3	173.1	142.9	142.3	124.3	117.3	110.9	108.4	99.75	103.6	99.53	100.7	102.8	93.61	104.5	93.43	92.10	106.6	100.7	99.37	89.54	85.40	75.15	78.96	71.48	68.56	62.54	57.77	53.29	48.81	41.98	39.88	39.70	35.26	39.23	47.37
535.0	40.82	96.35	46.73	107.3	82.00	113.2	113.4	106.0	104.9	106.5	138.4	128.0	153.6	137.8	148.6	143.0	143.2	136.5	116.8	115.4	105.3	91.88	90.85	91.05	82.74	92.02	87.86	89.75	83.00	88.24	82.87	83.14	87.20	92.13	86.05	77.73	80.46	75.47	71.29	62.47	60.27	55.85	53.32	47.71	49.01	40.89	43.97	36.14	35.39	31.83	36.08
540.0	63.94	35.17	35.91	45.74	79.70	61.48	69.28	90.85	85.87	100.5	142.8	129.2	109.5	126.5	155.8	145.1	128.6	123.9	105.1	92.13	95.78	92.27	80.06	82.70	80.28	83.85	77.84	78.32	80.85	69.87	76.31	78.57	81.92	74.74	74.08	74.08	68.01	67.81	58.75	57.70	52.64	47.68	45.93	45.67	43.00	39.91	36.63	34.68	30.77	26.81	29.41
545.0	16.09	48.92	60.15	49.58	60.34	65.55	102.7	113.1	92.93	102.0	90.61	103.0	110.2	122.9	132.7	131.6	127.8	110.5	97.04	92.26	86.93	70.20	85.27	69.44	67.91	74.10	70.20	70.95	70.38	64.58	66.92	68.22	70.62	69.38	60.82	71.19	63.21	60.95	50.20	47.50	45.55	45.31	46.46	44.20	36.80	38.24	33.74	30.85	26.84	27.45	24.15
550.0	41.74	34.31	32.67	38.61	49.54	80.26	47.48	99.96	76.11	85.37	106.5	125.5	79.96	109.1	113.6	195.7	137.0	97.08	91.62	76.99	74.05	69.61	60.73	58.45	65.91	64.90	66.50	61.25	61.68	62.92	62.23	61.51	64.10	65.79	55.52	60.62	56.14	48.11	49.62	47.87	47.46	43.08	40.04	37.50	35.96	30.83	29.82	29.46	27.71	26.09	23.11
