Sample:	'SLABO1-5-5-320
File name:	1N3.FD3
Run Date:	16:38:21, 08/15/2022
Operator:	Administrator
Comment:	'

Instrument
Model:	F-7000 FL Spectrophotometer
Serial Number:	2354-007
ROM Version:	5J14000 06

Instrument Parameters
Measurement type:	3-D Scan
Data mode:	Fluorescence
EX  Start WL:	200.0 nm
EX  End WL:	450.0 nm
EX Sampling Interval:	5.0 nm
EM  Start WL:	280.0 nm
EM  End WL:	550.0 nm
EM Sampling Interval:	5.0 nm
Scan speed:	12000 nm/min
EX Slit:	5.0 nm
EM Slit:	5.0 nm
PMT Voltage:	700 V
Response:	Auto 
Corrected spectra:	Off
Shutter control:	On
Contour interval:	25.000

Peak integration
Integration method:	Rectangular
Sensitivity:	1
Threshold:	1.000

Peaks
No.	ApexEX/EM(nm)	Height(Data)
1	205.0/325.0	916.9
2	205.0/375.0	574.0
3	205.0/395.0	619.2
4	205.0/460.0	493.7
5	210.0/345.0	658.0
6	210.0/365.0	610.8
7	210.0/435.0	729.7
8	210.0/475.0	354.3
9	210.0/500.0	327.4
10	210.0/510.0	238.2
11	215.0/350.0	692.4
12	215.0/385.0	668.9
13	215.0/440.0	718.0
14	215.0/455.0	591.5
15	220.0/310.0	949.5
16	220.0/360.0	708.2
17	220.0/405.0	732.1
18	220.0/535.0	153.8
19	225.0/320.0	 1042
20	225.0/365.0	694.7
21	225.0/390.0	738.6
22	225.0/410.0	840.8
23	225.0/515.0	293.2
24	230.0/325.0	931.6
25	230.0/340.0	812.4
26	230.0/360.0	725.0
27	230.0/445.0	778.4
28	235.0/355.0	639.2
29	235.0/395.0	834.5
30	240.0/385.0	820.4
31	240.0/420.0	955.9
32	245.0/350.0	681.9
33	245.0/400.0	925.9
34	245.0/410.0	941.8
35	250.0/335.0	699.5
36	250.0/355.0	697.6
37	250.0/370.0	752.4
38	250.0/430.0	 1041
39	255.0/325.0	696.9
40	255.0/405.0	930.7
41	255.0/440.0	995.0
42	260.0/445.0	997.4
43	270.0/425.0	 1121
44	270.0/445.0	 1149
45	275.0/305.0	 1567
46	275.0/435.0	 1146
47	280.0/310.0	 1660
48	280.0/365.0	773.8
49	280.0/450.0	 1103
50	285.0/315.0	 1448
51	285.0/375.0	806.2
52	300.0/335.0	642.6
53	305.0/340.0	612.2
54	305.0/430.0	959.7
55	310.0/345.0	572.1
56	310.0/420.0	 1009
57	315.0/350.0	566.7
58	320.0/360.0	619.6
59	325.0/365.0	706.9
60	325.0/420.0	 1033
61	325.0/435.0	 1017
62	330.0/370.0	751.9
63	330.0/415.0	 1035
64	335.0/380.0	746.6
65	340.0/385.0	749.3
66	345.0/390.0	764.4
67	350.0/395.0	765.3
68	355.0/405.0	806.7
69	360.0/410.0	783.1
70	365.0/415.0	798.5
71	370.0/295.0	11.83
72	395.0/330.0	12.33
73	400.0/310.0	9.124
74	425.0/340.0	7.939
75	425.0/495.0	186.6
76	440.0/350.0	8.057
77	440.0/380.0	10.53
78	440.0/515.0	124.3
79	445.0/310.0	6.071

Data Points
	200.0	205.0	210.0	215.0	220.0	225.0	230.0	235.0	240.0	245.0	250.0	255.0	260.0	265.0	270.0	275.0	280.0	285.0	290.0	295.0	300.0	305.0	310.0	315.0	320.0	325.0	330.0	335.0	340.0	345.0	350.0	355.0	360.0	365.0	370.0	375.0	380.0	385.0	390.0	395.0	400.0	405.0	410.0	415.0	420.0	425.0	430.0	435.0	440.0	445.0	450.0
280.0	-64.49	-6.358	1.390	65.13	44.61	29.53	20.15	13.50	13.53	36.43	51.77	69.29	57.68	16.62	17.83	 2104	9999.9	 5358	171.8	21.85	25.26	20.34	18.65	12.28	13.94	8.059	11.21	9.973	8.504	9.009	9.575	8.134	6.172	5.627	4.458	5.278	5.721	3.206	4.381	3.615	3.465	3.317	2.505	2.606	2.909	1.601	1.681	2.866	1.935	1.287	2.337
285.0	104.4	159.4	183.2	165.1	148.9	144.9	69.28	60.12	36.38	104.1	96.47	124.3	186.8	143.2	95.73	217.4	 4958	9999.9	9999.9	 1135	43.04	33.67	30.47	22.29	16.21	18.08	10.73	10.94	10.12	9.324	8.592	8.348	7.745	9.122	6.881	5.625	6.115	6.428	4.835	4.765	3.587	3.363	2.835	2.049	2.351	2.236	2.326	1.827	1.861	1.916	1.772
290.0	290.3	331.5	328.4	329.0	457.4	279.7	258.6	127.3	91.26	124.8	161.6	160.5	244.9	401.9	313.4	291.0	548.0	9999.9	9999.9	9999.9	 1471	53.01	38.03	37.89	28.99	18.02	19.42	12.98	13.50	11.76	11.66	7.090	9.422	8.943	6.969	6.349	6.886	5.756	5.088	4.760	3.602	4.551	4.099	3.093	3.390	3.611	2.621	3.129	2.335	3.169	2.655
295.0	406.1	490.1	625.4	614.8	562.8	530.4	452.2	268.8	187.5	213.6	215.6	230.7	306.2	503.2	759.2	599.0	520.6	976.2	9999.9	9999.9	9999.9	 1856	61.72	45.89	37.90	28.26	20.70	14.82	13.75	12.99	11.39	10.93	12.37	10.72	11.83	6.933	8.215	6.313	5.876	6.088	5.701	3.572	3.241	3.165	4.205	3.876	3.631	2.944	4.195	4.033	4.439
300.0	676.0	716.4	784.1	746.9	658.9	791.6	656.9	431.1	270.5	260.2	274.7	313.1	418.5	551.3	 1017	 1190	843.6	608.6	865.8	9999.9	9999.9	9999.9	 2047	67.26	54.15	43.33	34.16	24.33	20.57	18.50	14.57	12.97	14.14	12.67	10.35	10.82	9.187	8.546	5.200	4.791	6.049	6.146	5.266	4.857	3.752	4.029	3.320	5.640	4.467	5.460	3.918
305.0	588.0	922.3	836.8	723.2	911.1	960.7	683.8	574.3	423.7	350.4	371.0	400.2	500.5	677.6	 1040	 1567	 1430	762.7	383.1	807.2	9999.9	9999.9	9999.9	 2294	86.23	64.10	51.91	38.10	26.21	18.28	18.36	15.04	13.85	12.89	12.52	10.60	9.163	6.870	6.703	5.388	7.131	7.492	5.640	6.685	5.797	4.598	4.817	5.237	4.595	4.650	5.336
310.0	598.9	868.9	708.5	747.3	949.5	948.1	887.7	632.4	532.5	428.0	445.0	489.6	580.3	748.0	 1033	 1401	 1660	 1133	444.4	247.2	792.5	9999.9	9999.9	9999.9	 2313	92.69	67.33	53.66	38.58	31.19	20.73	20.26	17.96	14.60	12.74	11.50	10.29	9.334	6.993	7.327	9.124	7.321	6.892	6.741	5.402	5.994	6.378	4.758	4.503	6.071	5.776
315.0	672.7	 1019	704.9	907.1	802.0	995.5	902.1	706.0	567.2	520.7	556.9	601.2	624.3	793.8	 1083	 1376	 1447	 1448	658.1	263.1	212.7	784.4	9999.9	9999.9	9999.9	 2062	98.33	74.60	54.44	40.60	29.97	23.26	21.05	15.58	15.08	13.19	11.61	9.332	7.666	7.635	7.707	8.158	8.153	6.743	6.747	6.664	5.843	4.772	5.388	5.869	5.076
320.0	705.0	809.2	737.4	689.4	756.7	 1042	902.4	834.8	645.9	607.0	636.6	654.5	696.5	801.8	 1025	 1298	 1290	 1203	 1025	407.2	213.0	196.4	776.6	9999.9	9999.9	9999.9	 2054	118.9	78.27	58.12	37.79	31.00	24.75	20.95	17.66	14.18	11.74	8.877	8.142	7.576	7.994	8.254	6.551	6.600	7.407	7.214	6.220	4.785	5.461	5.374	5.302
325.0	673.3	916.9	886.0	841.7	831.6	916.5	931.6	791.6	635.9	615.2	696.6	696.9	685.4	761.6	 1034	 1138	 1212	 1009	851.0	743.7	290.8	175.5	178.7	762.4	9999.9	9999.9	9999.9	 2247	114.0	80.97	59.81	50.29	36.25	24.02	24.44	16.99	12.14	12.03	8.872	11.17	8.434	7.843	7.425	5.603	5.045	5.638	5.522	6.102	5.940	4.999	6.003
330.0	614.8	899.8	717.1	824.1	715.6	819.2	788.8	778.4	652.3	672.6	697.5	688.2	665.4	759.8	935.5	 1060	 1148	946.8	655.6	704.3	594.6	219.3	149.4	162.3	762.5	9999.9	9999.9	9999.9	 2195	119.2	85.58	70.51	48.38	32.83	30.01	21.32	15.33	11.86	11.16	12.33	8.223	8.355	8.194	6.405	6.123	5.610	6.576	5.422	6.456	6.299	5.006
335.0	493.0	591.3	617.9	745.8	760.3	825.3	782.7	724.9	706.7	645.0	699.5	696.6	621.3	717.8	810.4	 1027	 1013	870.1	623.4	482.3	642.6	442.0	153.6	145.9	166.4	772.6	9999.9	9999.9	9999.9	 2320	135.0	90.93	69.00	53.09	41.33	23.75	21.93	15.58	13.55	11.08	10.26	7.504	9.298	7.806	5.631	6.662	6.441	5.689	6.913	5.937	4.724
340.0	445.3	794.6	557.6	693.0	629.8	707.9	812.4	698.3	607.0	646.1	641.9	657.1	673.2	669.7	789.3	944.0	938.5	864.0	649.6	470.3	416.8	612.2	342.1	175.2	146.9	183.6	773.8	9999.9	9999.9	9999.9	 2624	141.0	90.76	66.71	47.06	36.77	23.60	20.10	15.38	11.34	10.44	8.726	9.313	6.875	6.502	7.939	6.747	5.717	6.166	5.293	5.919
345.0	628.4	628.5	658.0	544.0	647.6	734.5	786.2	670.8	670.1	637.7	591.8	578.6	659.6	635.0	754.9	812.5	863.6	776.4	653.1	484.7	362.4	411.0	572.1	327.5	196.4	155.4	192.7	771.9	9999.9	9999.9	9999.9	 2760	132.4	96.53	69.71	49.71	35.04	25.02	20.00	15.81	11.38	8.592	8.912	8.196	6.773	5.813	6.874	5.158	6.093	5.946	6.151
350.0	412.8	589.7	611.1	692.4	651.1	585.6	668.0	626.8	565.0	681.9	677.6	636.5	641.9	626.7	697.7	709.7	827.7	815.6	654.6	509.8	423.1	363.2	482.4	566.7	309.5	206.4	195.6	204.4	794.6	9999.9	9999.9	9999.9	 2831	132.8	97.35	71.39	47.96	33.51	22.86	20.70	14.15	12.09	9.000	8.483	6.509	7.478	7.154	6.084	8.057	5.435	6.134
355.0	415.2	518.3	535.3	635.3	598.5	567.6	637.6	639.2	622.9	650.9	697.6	588.4	595.9	644.0	663.3	794.2	802.3	754.8	666.0	535.2	461.8	405.2	394.3	548.4	560.4	315.9	240.7	203.8	204.2	801.4	9999.9	9999.9	9999.9	 2943	140.2	105.1	67.10	45.59	32.06	21.33	16.73	14.18	10.76	7.661	8.570	7.912	6.914	6.929	6.892	6.325	6.063
360.0	363.1	399.3	470.4	455.0	708.2	583.8	725.0	635.9	596.1	658.4	632.1	573.3	591.8	594.7	644.4	750.2	727.2	733.1	632.1	585.7	513.6	461.0	435.8	451.5	619.6	532.8	317.5	264.7	213.2	222.5	794.6	9999.9	9999.9	9999.9	 2698	135.4	94.10	57.93	41.23	29.09	21.71	17.78	10.96	10.86	9.563	8.994	7.246	7.763	6.280	5.882	5.944
365.0	528.2	498.8	610.8	495.0	515.5	694.7	579.8	577.7	610.8	591.1	659.1	627.1	589.4	619.8	647.8	732.4	773.8	752.4	697.7	606.8	564.4	520.0	507.9	482.2	531.9	706.9	527.2	346.1	275.6	219.0	220.2	800.0	9999.9	9999.9	9999.9	 2968	136.1	93.10	55.81	40.74	28.85	22.76	15.38	12.18	9.571	8.102	8.527	7.824	7.747	5.850	5.402
370.0	602.3	413.9	570.4	511.5	449.1	646.9	599.6	599.6	622.4	665.5	752.4	614.0	627.3	627.4	641.4	750.6	764.5	729.1	717.8	646.4	620.8	589.9	571.2	538.4	540.3	604.8	751.9	513.4	350.0	279.4	221.6	218.0	783.4	9999.9	9999.9	9999.9	 2879	123.8	83.35	52.52	37.83	31.52	17.72	14.22	9.891	8.779	7.811	7.019	7.659	6.968	5.244
375.0	434.1	574.0	387.1	513.3	583.7	652.4	538.2	610.3	633.3	691.5	725.1	630.0	672.9	633.4	670.3	746.9	772.4	806.2	738.2	673.5	665.2	624.8	633.5	639.0	619.7	615.0	678.7	718.1	466.8	343.3	278.3	230.0	227.6	787.6	9999.9	9999.9	9999.9	 3030	115.9	77.30	53.47	36.93	26.63	20.48	16.43	12.36	8.543	7.186	7.553	6.516	6.310
380.0	403.7	460.9	432.4	553.1	589.3	616.1	598.6	715.5	729.8	713.8	735.1	672.8	670.8	698.3	700.6	759.5	763.9	762.2	756.8	713.6	707.2	697.9	694.5	699.6	686.4	650.6	643.8	746.6	679.6	440.8	351.3	276.7	221.6	209.9	796.0	9999.9	9999.9	9999.9	 2697	106.1	73.82	45.61	34.73	24.87	18.68	13.90	10.78	8.724	10.53	8.589	6.001
385.0	397.5	372.3	578.2	668.9	580.3	625.3	606.7	711.6	820.4	736.0	745.5	703.9	683.6	695.2	738.2	766.2	794.8	802.3	787.2	778.2	767.4	789.1	770.4	787.4	753.7	718.1	682.9	673.1	749.3	654.1	411.0	349.7	279.8	213.8	205.4	762.4	9999.9	9999.9	9999.9	 2684	96.69	69.32	51.75	32.57	28.10	17.67	13.66	12.56	8.276	7.563	6.988
390.0	330.9	483.8	576.4	601.4	661.6	738.6	681.4	688.2	780.8	834.7	791.3	768.2	733.2	778.1	743.6	804.0	844.6	855.8	856.2	831.8	811.2	827.8	815.7	841.8	830.1	806.6	758.5	746.6	698.8	764.4	595.2	425.0	337.8	277.9	222.8	206.8	770.8	9999.9	9999.9	9999.9	 2500	91.75	65.51	43.47	30.74	22.19	18.28	14.82	9.823	7.987	7.200
395.0	501.5	619.2	568.4	626.4	685.9	697.6	643.4	834.5	825.6	807.9	813.1	790.8	772.4	811.6	834.8	831.8	893.0	887.4	882.5	857.7	833.6	882.6	897.7	907.5	881.7	877.4	827.2	797.8	739.7	744.4	765.3	546.8	414.1	343.0	268.3	212.1	201.0	763.5	9999.9	9999.9	9999.9	 2507	94.32	62.02	40.57	28.86	22.02	16.97	12.90	10.01	8.237
400.0	349.9	427.9	585.7	660.7	716.6	717.8	656.8	782.6	855.2	925.9	893.7	812.6	831.4	831.7	893.4	880.0	902.6	919.6	891.9	906.9	877.3	895.5	894.2	948.7	932.4	908.0	896.1	837.6	772.3	725.1	761.6	720.1	520.5	420.7	334.5	255.6	206.5	199.6	749.0	9999.9	9999.9	9999.9	 2228	82.29	56.40	40.55	25.95	18.96	15.98	12.74	9.362
405.0	234.2	431.5	466.2	561.8	732.1	700.1	712.7	745.7	900.0	898.3	893.6	930.7	892.2	889.9	903.0	923.0	962.3	958.0	918.7	894.7	893.0	922.5	963.5	997.3	952.6	946.2	955.8	894.8	865.4	781.2	740.5	806.7	687.1	505.5	403.2	328.3	254.5	189.4	182.7	748.6	9999.9	9999.9	9999.9	 2029	76.95	50.63	34.93	28.40	20.81	15.53	11.17
410.0	369.7	492.1	567.9	575.7	666.5	840.8	776.1	854.9	905.1	941.8	940.2	891.2	948.3	949.1	990.0	 1003	994.4	930.8	929.7	925.6	908.3	977.4	976.4	 1007	 1012	990.5	983.1	943.7	885.0	834.9	767.5	740.0	783.1	656.2	493.2	381.4	293.8	233.6	182.5	167.3	730.2	9999.9	9999.9	9999.9	 1860	72.65	51.00	33.63	21.83	17.36	12.57
415.0	344.2	488.5	589.9	683.1	755.5	803.0	764.1	877.2	880.3	922.8	963.8	920.1	948.7	977.2	977.2	 1023	 1027	979.8	921.4	919.0	936.3	945.6	979.5	 1005	 1016	 1029	 1035	974.5	924.2	877.6	828.3	753.3	760.1	798.5	595.7	442.1	356.7	271.8	211.1	151.6	161.1	718.4	9999.9	9999.9	9999.9	 1897	69.99	46.71	30.01	24.12	15.48
420.0	347.1	488.7	608.4	547.8	655.2	655.8	795.6	907.1	955.9	924.4	985.1	950.6	997.0	997.3	 1023	 1075	 1068	979.7	989.2	945.7	939.6	956.8	 1009	983.1	 1011	 1033	 1031	 1008	972.1	931.8	857.5	813.4	764.8	778.9	733.2	538.9	398.3	319.0	250.8	187.3	137.8	144.4	716.4	9999.9	9999.9	9999.9	 1636	65.79	41.34	32.04	22.75
425.0	379.8	567.0	455.9	658.7	641.9	756.9	740.2	887.0	891.0	988.2	 1021	936.2	 1001	 1053	 1121	 1054	 1076	 1034	961.2	932.4	897.9	938.5	978.1	983.9	 1001	998.3	 1011	996.3	972.1	907.9	879.0	820.4	782.3	728.8	747.3	651.7	454.8	349.5	275.3	222.9	170.1	119.6	133.1	706.8	 9940	9999.9	9999.9	 1410	61.71	40.42	27.73
430.0	232.3	512.1	436.2	566.0	765.7	698.3	742.8	771.7	942.0	889.2	 1041	978.4	994.7	 1047	 1093	 1119	 1107	 1025	949.4	890.6	890.8	959.7	944.4	973.3	 1002	 1012	 1002	992.6	970.8	941.9	907.0	868.4	807.4	760.0	722.2	687.0	544.0	391.9	304.7	245.9	188.7	149.7	115.8	132.8	691.3	 9405	9999.9	9999.9	 1265	58.47	39.43
435.0	311.1	450.8	729.7	536.0	676.5	640.4	729.5	813.3	882.3	974.8	994.4	951.4	990.5	985.5	 1104	 1146	 1123	 1037	941.3	879.2	880.3	908.5	919.0	935.6	984.4	 1017	 1001	982.8	974.1	963.4	909.2	852.8	840.9	786.2	723.5	664.8	620.0	475.4	344.4	291.0	214.1	170.7	127.4	101.1	118.0	655.1	 9152	9999.9	9999.9	 1252	52.13
440.0	278.6	564.6	448.5	718.0	547.3	762.1	734.4	782.9	853.6	960.9	936.3	995.0	958.7	 1022	 1140	 1091	 1073	 1019	929.5	848.3	878.8	869.5	916.6	907.6	944.4	970.6	952.2	991.6	947.0	945.9	902.9	877.2	825.5	791.6	736.4	655.4	593.6	560.3	394.5	291.7	239.9	191.8	142.5	113.3	89.76	115.8	636.9	 9040	9999.9	9999.9	 1093
445.0	433.5	319.6	486.5	663.9	568.3	578.6	778.4	737.2	818.6	946.3	958.9	977.5	997.4	965.7	 1149	 1141	 1068	 1027	909.0	853.9	819.7	849.6	848.9	892.0	914.6	937.8	952.1	926.9	930.5	921.3	894.4	867.9	834.1	809.2	743.0	639.3	552.7	542.4	461.1	325.7	250.8	207.0	163.5	125.9	99.86	87.09	113.5	633.4	 9191	9999.9	9999.9
450.0	342.4	348.8	299.4	499.4	538.0	554.7	694.7	706.6	847.4	861.9	931.1	949.7	937.8	 1020	 1055	 1101	 1103	933.5	866.9	810.6	765.7	779.6	820.8	869.3	857.7	895.8	872.5	862.9	909.1	880.9	850.5	816.2	824.8	755.9	731.0	653.1	566.2	483.8	479.0	388.9	284.4	225.5	185.0	145.5	114.3	93.19	79.34	109.9	636.3	 8569	9999.9
455.0	210.7	366.2	411.9	591.5	546.0	602.4	676.4	723.6	779.9	885.9	871.1	878.3	930.2	959.3	 1021	 1060	 1018	967.4	817.5	752.5	742.7	767.6	786.6	797.1	834.5	815.0	850.9	852.9	846.1	831.8	844.6	784.9	766.6	748.9	715.0	643.7	544.1	487.7	430.6	414.0	317.2	236.7	192.9	171.5	125.5	110.3	87.55	76.09	101.1	597.4	 8460
460.0	188.4	493.7	455.7	492.3	533.9	503.2	605.9	650.8	698.1	751.9	828.8	838.4	865.2	882.8	998.8	 1026	970.1	868.6	792.8	737.6	685.2	703.2	728.4	739.7	764.3	763.2	796.8	796.1	806.5	781.2	789.6	759.0	726.5	720.3	673.2	608.9	536.1	471.7	394.6	395.3	352.1	271.4	220.7	167.4	145.7	122.7	94.89	78.47	69.26	97.77	582.9
465.0	325.9	322.0	449.0	513.2	479.2	487.8	582.1	570.4	687.0	760.5	793.9	790.2	764.5	872.4	892.3	951.4	902.7	837.2	766.9	655.8	671.9	673.5	663.3	704.3	707.9	740.2	736.9	745.8	753.8	735.2	718.4	722.6	686.0	674.2	640.6	602.8	523.5	454.6	393.1	358.8	340.5	306.0	226.7	184.2	154.0	127.4	104.5	88.78	72.05	69.36	91.42
470.0	301.3	338.5	294.6	371.5	393.8	484.9	504.7	589.8	611.9	662.4	712.1	778.1	784.5	821.5	862.2	843.6	856.8	789.8	721.5	651.7	590.4	610.0	611.0	646.6	636.8	665.5	674.4	689.6	681.6	691.1	666.6	650.4	643.9	635.3	614.8	549.0	508.7	444.7	386.9	325.9	305.6	305.6	255.3	195.3	159.5	130.7	120.7	92.69	79.39	71.57	58.54
475.0	232.1	170.8	354.3	334.7	352.2	471.2	527.4	564.3	618.1	654.8	694.1	659.5	715.8	754.1	854.7	797.2	769.3	752.9	643.3	583.8	563.8	547.3	584.9	585.4	587.9	596.2	621.0	622.2	631.0	640.7	621.5	598.1	609.7	593.3	569.0	533.6	470.0	411.9	364.7	326.8	288.3	272.1	264.3	208.8	161.6	144.0	119.3	91.87	84.36	72.06	59.68
480.0	226.2	188.1	295.3	312.2	289.0	412.1	425.2	481.9	513.2	561.4	603.6	643.6	681.3	667.0	784.8	756.9	700.0	713.9	600.2	559.2	538.7	523.5	536.4	535.6	547.4	544.4	551.0	547.0	568.5	568.1	555.8	562.3	559.5	541.6	530.5	486.5	446.3	395.8	339.4	317.3	277.0	243.8	244.3	220.6	174.8	143.5	130.0	109.3	90.26	74.67	60.27
485.0	279.0	252.1	251.6	279.4	317.4	385.8	365.3	451.8	485.0	494.5	593.3	642.2	628.1	664.4	650.7	702.5	663.3	629.3	567.8	485.1	502.8	507.6	460.9	495.1	494.0	513.1	521.2	514.8	531.3	526.0	540.8	520.9	526.7	521.2	498.8	471.1	420.3	387.3	345.7	299.9	270.2	239.4	220.4	223.9	199.3	156.6	128.8	104.7	90.04	76.45	70.27
490.0	127.4	178.4	198.7	262.7	264.3	340.5	379.3	458.7	504.3	508.9	592.2	563.3	607.3	654.6	653.9	684.7	641.3	619.8	544.2	452.1	455.6	434.3	469.5	457.3	456.1	473.9	473.6	489.3	496.9	486.9	502.5	508.0	488.6	504.8	479.3	445.9	402.3	363.0	319.3	294.6	265.7	236.6	215.4	196.7	196.1	175.1	140.2	113.8	96.22	85.74	70.47
495.0	159.5	276.7	185.5	270.6	201.3	300.6	385.5	393.6	435.7	492.3	500.9	527.3	588.2	599.9	626.0	642.9	578.9	516.7	530.8	429.9	451.7	435.2	424.1	432.2	416.4	448.5	444.0	449.9	461.1	458.6	464.8	447.6	457.0	454.6	438.1	422.3	379.1	355.2	316.0	281.3	252.1	240.2	203.3	183.6	182.1	186.6	150.3	123.8	95.35	81.66	72.89
500.0	201.8	110.7	327.4	228.7	298.1	315.0	297.2	366.3	414.6	481.7	476.1	431.7	507.5	572.5	582.4	560.3	516.5	510.6	451.6	425.4	405.1	365.6	388.2	383.9	389.4	408.7	427.2	406.4	407.5	427.6	420.1	406.4	403.5	416.1	409.7	391.8	351.8	327.1	293.6	268.5	242.4	219.6	195.2	173.7	166.8	165.2	160.7	129.0	99.76	92.52	76.33
505.0	102.0	214.9	197.9	235.5	254.3	269.7	290.4	299.7	396.6	384.3	445.4	450.6	485.9	488.4	510.7	527.8	493.4	463.0	393.5	365.3	361.1	353.6	340.9	351.2	352.9	373.9	368.1	357.3	378.6	391.8	380.4	388.1	394.3	382.9	380.0	367.2	325.4	297.1	272.2	251.6	228.4	203.0	197.4	178.7	147.6	147.1	147.6	143.1	109.5	89.92	75.95
510.0	44.59	213.0	238.2	213.9	217.4	273.2	285.4	342.5	366.9	354.3	394.0	427.5	435.2	452.9	459.3	481.3	491.7	445.8	385.6	321.3	321.7	324.0	307.8	312.0	326.1	330.9	330.7	339.6	324.9	338.3	351.5	337.2	339.0	345.5	334.2	320.3	301.5	271.1	255.8	242.4	206.2	201.7	182.6	167.4	147.0	127.7	131.6	132.8	118.5	93.27	79.59
515.0	107.7	155.0	188.2	113.9	259.3	293.2	250.4	302.2	378.3	359.6	352.7	414.3	418.6	414.4	444.4	425.5	431.3	409.6	335.6	318.9	305.2	285.9	287.5	290.2	290.0	301.2	306.7	298.0	308.1	299.7	311.4	307.6	317.4	318.4	321.2	313.4	277.1	250.3	239.5	220.8	199.3	182.0	166.5	154.5	135.3	128.8	109.2	117.0	124.3	100.3	80.27
520.0	182.0	85.09	127.3	171.2	149.6	244.2	190.9	221.5	279.5	315.5	329.1	369.2	375.6	405.2	416.7	407.7	424.5	360.7	324.1	288.2	274.9	256.9	284.8	252.5	266.6	269.6	254.1	280.8	273.8	289.2	274.7	282.0	287.4	280.6	283.3	272.8	255.3	232.7	218.9	199.2	179.3	166.4	159.5	142.2	128.3	123.3	110.3	101.1	113.7	102.1	78.66
525.0	83.54	63.54	124.2	175.6	171.0	188.8	197.6	194.8	211.4	258.5	267.0	297.7	330.2	335.1	360.1	381.1	353.0	333.1	295.1	268.8	248.8	240.1	244.6	237.3	244.3	239.6	248.4	242.6	241.0	241.3	248.9	250.3	264.0	254.5	257.1	252.2	225.5	199.7	200.6	165.9	169.6	148.8	144.9	133.6	117.4	107.7	97.23	89.98	97.63	95.60	91.41
530.0	60.15	58.38	118.4	122.4	129.6	178.9	180.3	223.1	221.1	245.7	274.3	288.1	287.8	348.8	300.0	348.1	331.2	302.2	276.0	230.5	224.6	229.9	199.3	219.9	201.4	213.4	209.9	206.8	238.3	219.2	232.7	232.5	233.6	230.0	228.0	224.4	198.1	197.7	182.1	171.1	150.1	146.6	125.3	115.2	108.6	110.5	97.25	88.08	79.65	79.96	89.67
535.0	39.91	118.2	68.69	117.0	153.8	119.1	132.4	143.5	172.5	245.7	258.6	272.6	260.9	292.3	318.4	335.4	283.4	271.9	247.3	208.4	213.0	200.7	189.3	185.5	185.9	185.6	189.1	197.8	187.2	191.8	201.2	211.1	193.6	198.9	201.1	202.5	182.8	168.8	158.8	155.4	141.5	125.1	119.9	112.2	106.0	99.46	95.54	85.41	74.74	76.53	70.44
540.0	45.31	109.5	143.1	139.0	147.9	145.9	145.9	172.0	168.8	204.4	204.9	234.4	243.6	262.1	350.7	317.4	267.9	243.3	231.2	204.8	196.6	177.8	177.3	166.1	171.7	171.8	171.4	164.9	169.3	171.5	166.8	168.5	174.5	178.8	183.7	177.1	167.5	152.4	141.7	133.9	122.8	116.8	100.0	96.23	94.71	86.32	84.76	76.08	68.89	67.89	61.34
545.0	120.5	110.1	109.3	117.2	107.4	85.13	133.4	150.0	191.7	183.7	196.3	201.9	223.1	227.4	361.9	467.7	258.8	216.6	205.4	183.4	164.6	166.0	165.7	153.7	159.9	157.3	149.7	156.3	147.9	160.3	156.5	159.0	156.0	175.2	156.7	156.0	140.9	132.6	124.2	123.8	113.1	100.2	96.40	89.05	85.56	78.29	76.76	66.15	65.77	64.44	59.13
550.0	32.38	99.30	81.39	100.8	93.73	96.37	172.1	129.0	143.8	158.5	182.8	165.5	188.1	220.4	264.1	729.8	370.1	209.7	181.7	160.6	157.6	150.9	146.7	151.5	137.6	140.3	144.4	136.2	139.9	144.5	145.1	134.1	146.2	152.7	136.0	141.9	133.0	123.8	110.7	112.4	98.40	94.19	87.17	83.07	80.13	73.89	71.19	65.22	56.10	61.88	50.10
