Sample:	'SLABO1-5-5-320
File name:	1N5.FD3
Run Date:	16:29:41, 08/15/2022
Operator:	Administrator
Comment:	'

Instrument
Model:	F-7000 FL Spectrophotometer
Serial Number:	2354-007
ROM Version:	5J14000 06

Instrument Parameters
Measurement type:	3-D Scan
Data mode:	Fluorescence
EX  Start WL:	200.0 nm
EX  End WL:	450.0 nm
EX Sampling Interval:	5.0 nm
EM  Start WL:	280.0 nm
EM  End WL:	550.0 nm
EM Sampling Interval:	5.0 nm
Scan speed:	12000 nm/min
EX Slit:	5.0 nm
EM Slit:	5.0 nm
PMT Voltage:	700 V
Response:	Auto 
Corrected spectra:	Off
Shutter control:	On
Contour interval:	25.000

Peak integration
Integration method:	Rectangular
Sensitivity:	1
Threshold:	1.000

Peaks
No.	ApexEX/EM(nm)	Height(Data)
1	205.0/310.0	877.4
2	205.0/320.0	850.8
3	205.0/510.0	169.7
4	210.0/335.0	719.9
5	210.0/345.0	679.5
6	210.0/385.0	673.4
7	210.0/535.0	178.8
8	215.0/525.0	170.3
9	215.0/540.0	157.6
10	220.0/305.0	793.3
11	220.0/530.0	205.8
12	225.0/310.0	799.1
13	225.0/360.0	995.8
14	225.0/535.0	171.4
15	225.0/545.0	186.5
16	230.0/340.0	940.1
17	230.0/355.0	 1019
18	230.0/370.0	916.3
19	235.0/375.0	963.3
20	235.0/425.0	 1010
21	235.0/440.0	944.2
22	240.0/380.0	 1006
23	240.0/430.0	 1074
24	245.0/340.0	835.3
25	245.0/360.0	937.0
26	245.0/385.0	 1046
27	245.0/400.0	 1112
28	245.0/410.0	 1111
29	250.0/335.0	824.4
30	250.0/345.0	869.5
31	250.0/380.0	 1002
32	250.0/415.0	 1084
33	250.0/435.0	 1095
34	255.0/350.0	857.0
35	255.0/395.0	 1122
36	255.0/410.0	 1145
37	260.0/375.0	973.3
38	260.0/485.0	686.1
39	265.0/350.0	789.3
40	265.0/390.0	 1068
41	265.0/445.0	 1145
42	270.0/380.0	 1019
43	270.0/405.0	 1128
44	270.0/420.0	 1159
45	270.0/430.0	 1148
46	270.0/450.0	 1119
47	275.0/305.0	 1116
48	275.0/330.0	854.1
49	275.0/345.0	869.4
50	275.0/375.0	 1024
51	280.0/310.0	 1289
52	280.0/370.0	 1007
53	280.0/395.0	 1052
54	280.0/410.0	 1115
55	285.0/315.0	 1131
56	290.0/320.0	852.2
57	295.0/330.0	695.9
58	300.0/335.0	649.7
59	305.0/340.0	634.2
60	305.0/420.0	827.4
61	305.0/435.0	798.6
62	310.0/345.0	633.5
63	310.0/410.0	843.7
64	315.0/350.0	573.0
65	315.0/400.0	837.6
66	320.0/360.0	638.4
67	320.0/420.0	828.6
68	320.0/430.0	812.3
69	325.0/295.0	6.122
70	325.0/365.0	674.6
71	325.0/410.0	844.5
72	330.0/370.0	709.1
73	330.0/420.0	824.1
74	335.0/380.0	730.5
75	340.0/385.0	747.1
76	345.0/390.0	754.2
77	350.0/395.0	697.9
78	355.0/405.0	678.6
79	360.0/410.0	691.8
80	365.0/415.0	680.7
81	370.0/425.0	651.5
82	385.0/290.0	2.318
83	390.0/320.0	2.084
84	395.0/325.0	2.518
85	405.0/315.0	2.659
86	410.0/325.0	2.717
87	415.0/300.0	2.630
88	420.0/490.0	182.4
89	425.0/495.0	158.3
90	430.0/395.0	5.356
91	440.0/330.0	3.653

Data Points
	200.0	205.0	210.0	215.0	220.0	225.0	230.0	235.0	240.0	245.0	250.0	255.0	260.0	265.0	270.0	275.0	280.0	285.0	290.0	295.0	300.0	305.0	310.0	315.0	320.0	325.0	330.0	335.0	340.0	345.0	350.0	355.0	360.0	365.0	370.0	375.0	380.0	385.0	390.0	395.0	400.0	405.0	410.0	415.0	420.0	425.0	430.0	435.0	440.0	445.0	450.0
280.0	40.94	46.69	47.56	1.003	26.62	66.34	7.221	2.418	18.15	21.81	40.17	75.92	54.22	19.77	18.52	259.6	 1703	 1053	52.64	5.519	4.816	3.959	5.392	2.371	1.441	1.093	1.638	0.935	0.908	1.350	0.802	1.847	2.101	0.259	0.495	1.385	0.993	0.441	1.344	0.315	0.358	0.789	0.497	0.739	0.585	0.278	-0.025	0.772	0.261	0.340	0.495
285.0	311.3	180.4	207.2	87.77	128.6	117.4	101.0	31.66	44.06	70.47	84.49	125.3	210.3	124.0	81.17	80.31	570.2	 4523	 3535	321.3	5.211	4.790	3.482	2.924	1.520	2.534	1.329	1.395	1.281	1.241	0.768	1.138	0.679	0.888	1.079	2.094	0.527	0.901	1.488	0.554	0.727	0.706	0.908	0.826	0.503	1.007	0.678	1.062	0.939	0.913	1.739
290.0	433.5	434.2	372.5	297.6	341.8	249.3	172.1	98.31	56.42	138.0	153.8	188.1	220.4	391.2	231.5	163.4	175.6	 1353	 8241	 5663	433.9	6.017	5.139	5.073	4.422	3.354	2.389	1.492	1.169	1.643	1.523	1.708	0.206	1.724	1.616	1.536	1.302	2.318	1.250	1.370	1.296	1.490	0.807	0.912	0.823	0.601	0.819	1.558	0.899	1.596	1.063
295.0	639.6	640.8	554.4	551.2	557.3	472.1	316.7	162.6	107.3	159.9	181.7	203.4	217.0	417.7	613.0	419.5	294.4	252.9	 2150	9999.9	 7324	511.1	8.045	8.118	4.497	6.122	4.173	1.795	2.157	1.426	0.940	1.441	1.739	1.084	1.489	1.538	0.822	1.113	1.155	0.945	1.900	1.503	1.018	1.485	0.930	1.552	1.455	1.942	1.398	2.278	1.412
300.0	766.8	847.8	630.1	563.2	734.2	615.3	424.9	272.9	167.6	209.9	239.6	263.6	280.4	364.9	778.6	855.1	511.0	305.0	269.8	 2534	9999.9	 9014	559.6	10.78	8.356	3.769	3.475	3.005	2.824	2.004	1.075	0.807	1.296	1.153	1.192	1.304	1.795	1.284	1.848	0.956	1.478	1.992	1.542	2.630	0.973	1.255	2.303	1.285	1.804	2.710	2.603
305.0	 1092	841.0	685.9	619.6	793.3	739.3	512.8	329.6	251.4	305.0	288.1	330.1	394.0	462.7	612.2	 1116	931.0	429.1	218.4	252.7	 2715	9999.9	 9669	655.6	12.15	7.786	5.700	3.493	3.975	2.879	1.758	2.091	2.243	0.470	1.606	1.004	2.170	0.733	1.622	1.575	1.843	2.296	1.312	2.030	1.346	1.527	1.498	2.022	1.468	2.172	2.704
310.0	870.8	877.4	835.0	687.5	717.2	799.1	616.1	423.6	375.9	351.0	426.0	419.3	479.3	542.1	621.9	857.6	 1289	741.5	256.9	141.0	241.5	 2827	9999.9	9999.9	640.9	14.38	10.41	6.050	4.565	4.338	3.167	2.359	2.451	2.339	2.356	2.623	1.735	0.710	1.140	2.231	1.344	1.904	2.070	2.185	1.905	1.823	1.968	2.332	2.215	2.787	2.412
315.0	989.4	845.5	685.8	718.7	742.2	743.6	636.4	493.4	469.0	509.6	623.4	570.2	569.5	583.0	648.7	782.4	868.0	 1131	485.9	161.9	102.4	241.1	 3349	9999.9	9999.9	562.7	14.86	9.343	7.609	5.785	3.949	2.180	3.012	1.585	1.607	1.442	1.592	1.489	0.922	2.366	2.476	2.659	1.937	1.954	1.581	2.083	1.399	1.390	1.836	2.479	2.128
320.0	572.4	850.8	692.7	598.0	661.2	793.9	632.0	530.9	481.5	571.6	607.7	662.1	627.2	597.4	647.6	744.7	777.5	851.3	852.2	302.7	141.3	106.7	264.2	 3241	9999.9	9999.9	534.8	12.60	9.518	5.471	6.239	4.405	4.227	2.309	3.356	1.720	2.908	0.900	2.084	1.145	0.993	1.057	1.823	1.518	1.751	2.169	2.060	1.904	2.358	2.582	3.316
325.0	659.3	846.2	664.6	714.8	708.8	820.7	835.3	619.1	604.6	654.6	693.3	683.1	678.2	617.7	726.0	781.9	747.1	682.9	732.2	676.1	237.6	138.1	94.86	261.9	 3157	9999.9	9999.9	572.5	13.72	6.921	10.41	5.833	4.029	3.439	3.956	2.208	2.846	1.961	0.963	2.518	2.493	1.510	2.717	1.989	1.631	2.491	1.767	1.808	2.623	2.276	3.366
330.0	649.2	598.8	711.9	636.2	727.1	788.8	904.4	769.5	651.7	718.8	768.6	771.3	684.6	668.6	730.5	854.1	827.6	718.0	571.8	695.9	587.2	189.1	110.4	97.18	263.7	 2941	9999.9	9999.9	551.8	13.52	10.22	6.347	4.270	2.889	2.988	3.284	2.163	2.376	1.590	2.440	1.628	1.610	1.678	2.281	1.877	2.073	1.712	2.337	3.653	2.688	2.655
335.0	711.5	697.0	719.9	648.2	774.5	887.5	892.3	741.6	699.2	800.3	824.4	788.4	723.5	666.8	701.3	820.3	779.0	728.0	569.8	464.0	649.7	445.4	159.7	109.3	100.9	251.2	 3100	9999.9	9999.9	530.7	14.74	8.421	6.311	5.712	4.496	2.676	2.434	2.186	1.527	1.937	2.176	1.270	0.542	1.736	2.582	3.089	1.846	2.198	1.797	2.576	2.975
340.0	482.4	630.8	619.9	567.6	835.9	897.1	940.1	810.5	764.2	835.3	774.2	765.7	733.4	720.3	696.4	837.1	852.9	788.4	636.7	467.2	414.5	634.2	360.7	150.6	119.7	104.7	262.1	 2872	9999.9	9999.9	553.4	14.31	10.31	7.431	5.142	4.570	2.847	2.764	3.446	1.994	2.110	1.016	1.902	2.079	1.184	2.488	2.548	2.828	2.632	2.203	4.285
345.0	416.7	570.4	679.5	619.1	784.5	887.5	836.5	864.6	754.8	805.7	869.5	793.8	749.5	751.8	775.6	869.4	865.5	797.7	671.3	515.5	376.3	406.8	633.5	311.1	160.3	134.7	108.9	249.4	 2780	9999.9	9999.9	586.9	14.86	9.633	5.959	7.005	3.663	3.898	2.811	1.452	2.312	1.470	1.895	1.867	2.481	2.530	1.916	2.408	2.312	2.307	3.354
350.0	357.8	505.3	518.3	612.6	683.3	877.5	839.8	860.1	845.7	839.7	818.8	857.0	761.9	789.3	762.9	800.1	854.5	853.1	731.9	560.5	439.9	357.9	510.1	573.0	279.6	179.4	142.5	134.4	257.4	 2695	9999.9	9999.9	551.1	15.00	9.817	7.535	5.176	4.110	2.430	3.039	2.677	1.991	2.857	2.304	2.595	2.111	1.945	2.463	2.050	2.872	3.542
355.0	364.1	464.7	419.7	521.7	749.7	912.7	 1019	880.2	831.0	775.9	878.1	832.8	797.8	765.2	839.3	858.8	906.0	877.9	749.4	590.5	483.1	431.9	387.8	545.0	535.7	283.7	219.5	157.5	137.5	258.8	 2583	9999.9	9999.9	554.4	14.99	10.10	9.009	5.385	3.193	2.572	2.134	2.496	2.101	2.005	1.838	2.536	1.903	2.185	2.300	3.018	2.891
360.0	328.6	452.3	515.5	551.5	676.7	995.8	995.4	848.8	816.4	937.0	902.6	847.8	840.5	854.0	819.1	898.7	923.1	911.9	834.0	669.9	555.0	469.8	440.2	465.3	638.4	526.2	298.0	227.5	177.1	135.8	252.7	 2702	9999.9	9999.9	512.8	14.35	9.632	6.545	3.803	3.840	3.826	2.819	1.952	2.373	1.624	2.496	2.136	2.749	2.528	2.799	3.300
365.0	259.7	403.0	510.3	578.9	723.6	957.3	853.6	821.2	865.7	916.6	863.8	893.5	850.1	876.9	899.2	928.0	938.0	939.9	880.8	712.3	588.6	565.6	519.5	481.1	523.6	674.6	507.9	317.6	242.8	187.3	143.3	257.6	 2530	9999.9	9999.9	541.4	13.66	8.801	6.304	4.826	4.884	4.200	3.643	2.044	1.832	2.471	2.197	2.425	2.763	2.319	2.564
370.0	312.1	381.6	484.2	587.4	765.7	859.7	916.3	891.9	885.1	919.5	934.3	936.4	916.5	898.5	893.6	978.1	 1007	934.4	841.9	723.0	616.8	596.2	576.0	531.4	536.1	597.5	709.1	477.5	320.0	247.3	189.8	138.7	248.1	 2596	9999.9	9999.9	522.9	15.51	8.650	6.442	5.467	4.472	2.599	1.993	2.220	3.044	2.339	2.423	3.079	2.624	3.929
375.0	288.9	445.3	551.0	544.4	779.1	852.4	875.1	963.3	898.7	902.4	943.4	962.9	973.3	896.6	956.9	 1024	989.6	972.8	863.5	783.9	708.8	654.7	628.6	624.9	605.3	590.6	652.9	730.1	463.6	329.4	256.0	173.3	141.4	247.2	 2447	9999.9	 9780	506.8	12.29	8.556	6.065	4.840	3.382	2.512	2.506	2.172	2.270	2.538	2.905	2.710	3.938
380.0	358.7	425.1	484.4	544.9	777.8	760.5	940.6	887.2	 1006	950.1	 1002	934.6	948.3	971.8	 1019	994.4	 1013	984.8	915.2	778.1	759.3	682.3	676.0	681.5	657.0	636.1	623.0	730.5	655.7	427.1	300.8	239.9	168.9	132.4	236.2	 2516	9999.9	 8772	431.7	16.45	8.057	6.008	5.283	3.406	2.489	3.469	2.135	2.971	2.110	2.510	3.399
385.0	271.7	398.6	673.4	544.4	799.3	873.0	922.1	911.3	923.3	 1046	982.1	957.1	988.4	 1006	979.3	997.7	 1017	949.4	950.6	805.6	762.5	759.7	749.4	715.5	726.4	721.6	644.6	658.7	747.1	592.1	383.8	287.5	233.7	169.2	132.5	241.0	 2216	9999.9	 8262	408.3	12.36	9.791	5.949	4.318	3.909	2.375	2.764	2.587	2.552	2.702	3.836
390.0	255.2	375.1	571.4	489.2	673.9	825.9	812.5	959.8	976.4	 1038	944.7	961.3	960.7	 1068	 1020	 1002	 1026	987.3	943.8	833.4	804.0	780.7	755.5	757.2	758.5	746.6	713.2	685.6	664.7	754.2	548.1	364.5	280.7	215.0	158.4	131.6	219.7	 2104	9999.9	 7605	380.5	11.47	7.971	6.917	6.183	4.821	4.807	2.994	2.630	3.296	3.072
395.0	213.8	298.9	642.2	613.4	652.0	803.6	801.0	945.7	979.4	 1046	 1065	 1122	 1019	 1060	 1044	 1028	 1052	 1015	931.7	870.5	818.2	812.6	807.1	783.1	796.2	745.7	759.1	713.0	649.7	681.2	697.9	480.2	358.3	286.4	218.4	163.0	120.2	207.9	 1999	9999.9	 7375	376.0	11.12	9.844	5.710	4.112	5.356	3.897	1.964	3.650	3.999
400.0	487.4	562.4	499.3	506.1	652.2	932.2	927.2	971.4	 1004	 1112	 1046	 1083	 1075	 1027	 1077	 1066	 1031	 1029	933.5	888.7	831.7	838.5	808.8	837.6	802.7	798.7	799.4	764.6	685.2	654.7	670.7	664.9	444.8	348.1	277.3	211.4	153.6	114.9	199.8	 1966	9999.9	 6761	319.3	10.41	5.696	7.567	3.272	4.573	3.522	2.144	5.501
405.0	258.2	377.0	520.6	601.0	780.2	780.3	937.8	953.7	 1008	 1067	 1022	 1048	 1041	 1058	 1128	 1088	 1090	 1014	946.3	889.0	861.7	821.1	832.8	820.8	824.8	827.3	800.2	771.8	755.7	679.4	645.0	678.6	611.4	424.2	333.8	271.7	204.0	147.6	110.9	195.4	 1791	9999.9	 6247	280.1	10.95	6.320	5.101	5.187	3.459	4.236	6.795
410.0	307.5	327.0	553.5	539.3	723.0	901.6	893.7	 1021	 1006	 1111	 1077	 1145	 1122	 1068	 1105	 1077	 1115	 1038	939.9	923.4	829.9	829.7	843.7	843.6	820.1	844.5	834.3	779.4	784.9	718.3	661.6	622.0	691.8	534.1	392.4	324.4	252.1	183.9	135.2	108.2	175.9	 1803	 9884	 5826	257.2	10.48	5.839	6.832	3.772	5.205	8.139
415.0	339.5	390.7	510.6	566.4	720.5	739.6	956.6	 1061	 1041	 1070	 1084	 1073	 1089	 1103	 1144	 1090	 1073	 1059	942.7	882.8	826.6	817.9	833.2	840.5	821.7	832.1	811.7	806.9	795.2	742.6	684.2	638.6	646.1	680.7	498.6	373.7	292.3	236.5	169.8	117.6	95.20	174.4	 1714	 9145	 5389	233.4	10.70	7.035	5.633	4.900	9.570
420.0	262.0	443.9	540.5	559.5	577.6	810.0	894.7	975.4	 1032	 1073	 1030	 1090	 1123	 1120	 1159	 1151	 1114	 1003	937.2	864.2	813.3	827.4	808.1	804.3	828.6	800.3	824.1	809.1	790.5	754.3	728.1	661.9	643.7	650.3	630.1	453.0	330.3	270.1	206.0	146.8	111.3	89.43	161.3	 1640	 8723	 5076	221.8	11.07	7.366	6.704	11.53
425.0	182.7	325.3	463.3	479.1	588.2	802.2	925.3	 1010	946.4	 1030	 1030	 1097	 1104	 1111	 1145	 1126	 1048	996.7	948.2	856.7	781.1	826.1	805.5	805.1	791.9	800.8	813.4	799.9	795.8	755.8	711.9	697.4	653.2	612.8	651.5	553.2	389.3	300.9	243.9	184.2	143.3	99.35	77.08	156.1	 1569	 8087	 4713	179.9	10.10	8.294	11.86
430.0	361.5	492.6	596.2	560.8	647.2	749.3	883.5	985.4	 1074	 1040	 1033	 1036	 1055	 1082	 1148	 1106	 1044	970.9	903.2	822.4	775.6	760.3	764.9	776.2	812.3	800.6	778.4	790.5	784.3	741.7	734.2	683.5	646.5	624.2	590.2	610.7	481.9	331.1	264.2	211.8	162.6	119.9	85.53	69.52	141.0	 1458	 7664	 4473	161.9	13.33	11.81
435.0	256.3	375.0	467.5	568.2	604.5	723.7	841.3	849.9	932.3	 1013	 1095	 1005	 1132	 1112	 1146	 1132	 1048	981.7	939.6	792.1	767.6	798.6	738.1	779.9	776.7	761.1	758.9	772.8	769.8	743.8	729.8	682.0	662.6	644.3	593.1	571.3	546.6	408.5	300.9	238.5	184.9	146.6	105.2	76.29	67.15	134.6	 1389	 7580	 4192	227.1	16.40
440.0	188.7	433.8	544.5	592.2	570.6	810.1	764.2	944.2	875.5	975.6	 1094	 1032	 1055	 1135	 1147	 1115	 1072	977.6	910.4	808.9	724.2	743.5	736.6	736.1	739.8	738.7	749.0	758.1	739.4	741.6	711.7	683.7	663.0	639.3	606.5	542.9	516.4	487.2	340.6	258.9	202.7	176.1	126.6	96.40	77.31	67.25	126.2	 1408	 7276	 5212	208.0
445.0	329.3	443.1	540.6	520.6	639.7	634.3	712.5	913.7	916.0	966.1	959.4	 1087	 1062	 1145	 1048	 1112	 1062	956.5	840.9	781.9	753.8	726.0	702.3	712.5	702.7	715.4	701.1	733.4	713.3	703.2	712.8	681.3	675.9	634.7	605.1	546.4	487.2	457.2	422.7	293.4	227.8	174.5	140.7	108.1	84.90	62.65	57.79	122.7	 1406	 8200	 6436
450.0	259.5	432.7	465.3	389.1	582.7	596.0	713.3	765.6	846.5	846.1	943.0	978.7	 1006	 1092	 1119	 1084	 1014	929.1	808.2	751.3	693.0	681.6	683.6	662.9	658.0	674.3	658.8	677.7	680.8	682.6	653.7	649.7	649.6	619.1	613.4	524.8	467.2	419.6	421.1	340.0	255.5	203.9	164.6	124.3	101.8	84.35	63.38	50.49	124.4	 1455	9999.9
455.0	275.6	361.3	379.3	317.7	567.0	579.1	701.5	730.3	804.3	841.7	956.2	892.6	994.3	965.3	 1058	 1016	939.6	870.7	731.6	707.0	642.7	617.7	615.3	634.9	635.0	626.9	649.0	656.6	657.7	626.2	631.1	615.3	634.0	600.3	574.3	535.4	468.0	405.7	374.7	366.3	278.2	211.8	171.7	143.1	113.8	95.28	69.33	57.21	52.45	124.3	 1965
460.0	206.4	304.2	337.5	338.9	484.6	624.5	670.0	722.8	762.6	806.4	843.7	963.6	950.6	 1012	921.7	996.7	887.5	810.9	738.3	657.6	629.2	591.0	574.3	583.0	607.5	568.2	590.2	603.4	610.0	600.1	591.8	595.0	598.9	574.6	563.8	508.1	439.3	403.8	345.4	344.8	317.0	234.4	179.4	145.6	119.2	93.40	83.36	68.01	51.14	43.91	153.1
465.0	129.4	209.3	301.4	420.1	417.1	591.2	611.2	674.8	769.1	764.9	765.6	828.6	853.1	884.7	933.1	896.2	886.0	777.4	691.7	640.0	613.6	571.8	539.8	543.0	560.9	552.7	542.5	554.0	547.8	551.8	562.3	544.0	555.0	541.0	533.8	491.4	435.6	384.4	328.2	302.3	289.2	261.2	196.2	157.7	128.7	107.4	86.69	72.02	56.43	46.53	45.37
470.0	143.6	200.3	267.7	364.4	435.5	472.5	556.1	656.3	630.9	739.0	724.6	777.9	810.3	817.3	896.4	879.7	816.7	717.2	661.8	582.4	551.4	528.8	506.5	498.9	491.5	491.3	515.6	528.0	503.2	515.6	505.2	517.6	508.7	522.9	499.8	464.6	416.1	362.8	317.8	291.0	259.6	267.4	225.3	165.7	133.6	112.9	90.38	81.60	63.56	50.97	46.41
475.0	163.0	295.1	281.8	308.9	332.0	511.6	499.4	512.2	631.4	689.8	723.4	734.6	722.6	771.2	750.3	753.3	773.5	690.1	617.7	553.7	511.8	462.0	477.4	467.2	435.6	473.8	450.9	474.3	476.0	471.9	458.8	469.6	468.1	473.8	453.2	420.9	403.5	350.2	317.1	282.5	245.0	242.9	243.2	179.7	134.3	115.1	97.73	84.68	68.54	57.69	48.24
480.0	126.8	288.9	234.9	293.0	386.4	379.5	499.2	525.5	541.1	605.9	645.1	701.2	651.4	711.0	766.1	694.1	698.1	618.1	534.5	485.9	464.7	429.3	427.3	442.7	423.5	418.8	425.9	445.8	440.6	428.7	439.8	441.2	444.2	454.2	439.6	399.7	387.9	341.7	298.3	269.9	233.5	210.7	227.6	204.0	162.4	122.7	101.1	93.56	76.41	63.53	51.40
485.0	182.5	230.1	241.8	311.8	328.1	419.6	450.4	510.7	502.9	538.4	603.2	603.6	686.1	662.8	705.9	717.3	653.5	605.1	524.4	473.0	450.2	426.6	385.5	403.4	389.4	399.7	390.9	399.6	406.3	403.3	408.2	418.7	413.4	409.1	412.9	374.3	349.8	317.2	289.9	253.8	223.4	206.9	192.8	194.7	177.3	137.5	107.3	92.06	78.38	65.37	61.18
490.0	152.6	109.5	259.1	270.5	297.0	363.7	438.9	429.5	506.4	525.7	601.0	569.1	637.7	632.5	645.7	670.6	621.3	551.7	493.6	434.7	404.1	399.3	370.0	384.8	368.3	364.2	365.4	373.6	365.7	369.2	381.3	381.0	385.3	378.3	392.6	358.0	325.5	299.5	281.2	252.1	220.7	210.3	185.7	167.7	182.4	156.5	114.9	96.17	86.58	73.05	62.95
495.0	90.66	157.3	177.5	281.9	253.2	369.5	404.5	400.3	449.4	523.6	504.6	548.5	553.5	621.0	616.8	586.3	555.3	550.2	481.3	407.1	405.3	348.7	364.3	366.9	357.5	352.8	332.0	340.5	347.1	337.8	353.1	341.5	349.7	344.2	356.3	322.5	311.4	291.1	250.4	246.4	224.1	195.9	182.8	155.7	155.2	158.3	129.1	94.85	88.39	72.69	61.10
500.0	37.77	120.6	211.0	235.6	146.0	268.8	384.9	352.7	429.4	485.5	466.2	533.0	497.0	568.4	544.8	555.7	541.6	490.0	423.1	398.7	358.4	349.3	337.2	333.4	302.3	312.4	312.8	320.9	293.8	306.9	304.2	312.0	319.6	334.4	327.3	308.8	291.2	270.9	247.7	228.9	206.8	180.9	178.7	154.1	143.7	146.9	139.8	101.5	91.02	81.30	66.48
505.0	119.1	158.1	210.5	213.6	168.4	264.7	289.5	384.9	394.4	412.5	436.7	490.0	458.1	497.3	534.0	527.2	506.7	448.1	400.5	363.6	330.4	308.5	298.1	301.8	295.2	284.9	290.8	269.0	293.2	283.1	279.6	291.5	298.6	309.1	304.0	281.3	261.3	243.3	219.9	209.6	191.0	176.1	157.5	144.7	133.0	124.6	127.6	123.9	90.08	77.52	72.49
510.0	89.84	169.7	147.5	155.5	194.8	242.4	269.4	314.8	356.7	395.4	404.8	415.5	456.4	514.0	501.6	473.8	446.0	402.0	367.4	353.6	290.3	284.6	254.6	287.9	257.8	263.1	240.4	251.5	257.9	257.0	260.1	260.5	265.2	262.9	274.5	256.6	237.6	225.9	206.3	195.1	181.7	171.7	150.4	142.5	129.7	114.4	111.2	117.5	103.8	84.39	68.27
515.0	61.52	129.7	130.9	124.5	173.8	214.5	264.7	321.8	330.3	354.6	379.8	358.3	458.8	414.4	436.0	418.0	409.7	389.0	339.3	302.9	262.3	260.4	237.7	248.4	240.6	239.5	224.7	235.2	217.6	242.5	238.3	234.3	242.2	248.3	244.4	232.3	222.1	209.4	194.7	176.8	164.1	146.4	140.7	129.8	118.7	104.0	96.81	99.68	102.6	85.03	70.13
520.0	23.14	110.2	116.2	126.0	144.1	120.8	265.1	280.8	294.8	310.5	351.7	361.8	394.2	376.2	395.8	422.9	376.5	344.5	321.4	288.5	258.6	225.6	218.9	219.8	208.5	203.6	205.3	212.3	196.9	208.0	197.3	190.5	221.9	217.4	219.1	211.7	197.7	181.0	174.9	171.6	148.6	141.5	131.2	115.2	104.7	103.7	92.00	88.14	90.53	87.82	72.62
525.0	82.77	48.68	111.9	170.3	129.7	187.0	198.3	275.5	268.9	270.5	285.0	283.8	341.2	334.1	341.3	348.6	346.2	325.2	293.7	259.8	220.1	214.8	198.1	198.6	191.4	191.3	183.2	174.6	164.4	190.5	180.6	187.4	187.7	193.3	186.1	184.8	179.2	169.8	153.9	147.9	130.6	127.8	110.5	111.3	100.5	91.30	85.14	77.36	81.07	85.23	77.88
530.0	59.75	46.78	145.2	169.3	205.8	158.2	180.9	252.5	221.6	270.9	270.0	305.7	325.9	328.4	345.1	322.3	292.2	296.8	260.6	239.7	204.1	197.6	175.4	180.7	164.7	160.3	159.2	170.5	155.2	164.1	159.7	166.1	167.3	174.1	183.1	168.8	160.6	146.1	134.7	124.0	115.2	111.9	108.6	97.10	90.05	85.65	80.83	77.85	68.33	75.62	74.65
535.0	77.00	64.09	178.8	121.9	162.2	171.4	147.5	199.7	201.9	231.4	257.5	270.3	272.7	281.8	320.6	282.6	287.7	247.5	252.5	206.6	192.5	179.0	157.7	156.1	151.9	150.1	148.5	151.1	138.3	143.5	133.4	152.3	146.6	154.8	149.3	139.8	132.8	131.9	127.4	111.7	116.1	102.8	96.70	86.66	80.85	74.84	74.84	70.23	63.65	63.63	68.10
540.0	8.531	53.95	100.5	157.6	99.55	162.1	161.2	168.1	184.5	194.3	209.9	230.1	236.1	245.5	272.2	292.3	243.2	246.5	210.0	191.6	166.6	166.3	153.7	144.0	138.6	132.0	127.9	135.8	130.3	133.3	121.2	130.0	140.0	137.1	139.5	131.9	126.7	114.5	113.5	105.2	95.03	93.07	90.23	83.21	78.33	73.73	67.37	62.77	60.57	57.28	55.27
545.0	13.71	0.060	46.11	54.10	145.2	186.5	139.6	159.9	180.5	194.3	205.8	189.6	223.2	238.6	242.0	309.0	242.2	212.7	195.0	178.0	147.3	153.3	137.9	119.9	113.4	129.5	122.8	121.8	110.1	116.1	112.2	120.0	123.7	120.7	118.3	117.4	111.0	110.6	101.1	89.27	84.72	80.51	76.10	76.89	67.44	66.27	62.24	61.14	53.50	54.31	48.88
550.0	94.24	105.5	27.40	81.77	109.4	142.3	118.9	152.7	147.2	188.6	178.7	178.0	211.7	205.8	234.3	256.3	238.1	192.2	184.7	157.5	136.0	137.7	130.3	122.7	110.7	107.8	102.0	106.9	100.9	108.1	109.5	106.4	112.8	110.9	113.2	104.3	98.48	98.46	91.44	79.88	82.86	79.82	72.57	69.09	65.61	59.33	58.37	56.97	50.09	45.50	43.91
