Sample:	'SLABO1-5-5-320
File name:	1N6.FD3
Run Date:	16:25:05, 08/15/2022
Operator:	Administrator
Comment:	'

Instrument
Model:	F-7000 FL Spectrophotometer
Serial Number:	2354-007
ROM Version:	5J14000 06

Instrument Parameters
Measurement type:	3-D Scan
Data mode:	Fluorescence
EX  Start WL:	200.0 nm
EX  End WL:	450.0 nm
EX Sampling Interval:	5.0 nm
EM  Start WL:	280.0 nm
EM  End WL:	550.0 nm
EM Sampling Interval:	5.0 nm
Scan speed:	12000 nm/min
EX Slit:	5.0 nm
EM Slit:	5.0 nm
PMT Voltage:	700 V
Response:	Auto 
Corrected spectra:	Off
Shutter control:	On
Contour interval:	25.000

Peak integration
Integration method:	Rectangular
Sensitivity:	1
Threshold:	1.000

Peaks
No.	ApexEX/EM(nm)	Height(Data)
1	205.0/320.0	 1422
2	205.0/340.0	 1531
3	205.0/390.0	 1584
4	205.0/455.0	 1016
5	205.0/465.0	 1011
6	210.0/475.0	821.7
7	210.0/500.0	575.1
8	210.0/530.0	264.5
9	215.0/540.0	294.6
10	220.0/370.0	 1110
11	220.0/530.0	250.4
12	235.0/425.0	545.5
13	240.0/410.0	584.5
14	245.0/395.0	695.7
15	245.0/430.0	536.6
16	245.0/455.0	447.7
17	245.0/535.0	110.4
18	250.0/335.0	914.6
19	250.0/360.0	771.9
20	250.0/425.0	515.2
21	250.0/440.0	529.4
22	250.0/525.0	136.2
23	255.0/385.0	572.2
24	255.0/430.0	482.3
25	260.0/460.0	384.2
26	265.0/495.0	245.0
27	265.0/515.0	190.5
28	270.0/430.0	465.9
29	275.0/305.0	751.5
30	275.0/410.0	453.0
31	275.0/470.0	352.2
32	275.0/510.0	184.5
33	280.0/310.0	895.4
34	280.0/380.0	458.7
35	280.0/400.0	436.7
36	285.0/315.0	871.5
37	285.0/430.0	428.3
38	290.0/375.0	432.6
39	290.0/395.0	451.6
40	300.0/335.0	488.5
41	305.0/340.0	470.9
42	310.0/345.0	458.1
43	315.0/350.0	450.6
44	320.0/360.0	434.8
45	320.0/415.0	578.2
46	320.0/430.0	566.6
47	325.0/365.0	464.7
48	325.0/420.0	590.8
49	330.0/370.0	510.8
50	335.0/375.0	496.9
51	340.0/385.0	523.4
52	345.0/390.0	534.9
53	350.0/395.0	532.0
54	355.0/405.0	519.4
55	360.0/410.0	545.3
56	365.0/415.0	539.5
57	370.0/420.0	505.8
58	375.0/430.0	439.2
59	395.0/455.0	246.6
60	410.0/475.0	165.5
61	420.0/485.0	126.2
62	425.0/495.0	114.8
63	430.0/500.0	103.8
64	440.0/285.0	12.49
65	440.0/515.0	78.51
66	445.0/545.0	46.84

Data Points
	200.0	205.0	210.0	215.0	220.0	225.0	230.0	235.0	240.0	245.0	250.0	255.0	260.0	265.0	270.0	275.0	280.0	285.0	290.0	295.0	300.0	305.0	310.0	315.0	320.0	325.0	330.0	335.0	340.0	345.0	350.0	355.0	360.0	365.0	370.0	375.0	380.0	385.0	390.0	395.0	400.0	405.0	410.0	415.0	420.0	425.0	430.0	435.0	440.0	445.0	450.0
280.0	18.05	11.72	12.72	59.13	-4.108	0.830	8.248	9.603	10.20	20.35	36.03	39.94	29.04	14.11	18.74	 5033	9999.9	9999.9	388.4	69.08	70.98	74.52	66.32	53.17	51.53	44.93	41.98	40.86	36.39	38.25	36.63	35.87	36.85	34.79	34.07	30.52	22.48	23.44	22.19	18.67	17.96	18.72	14.80	12.62	12.65	10.04	11.03	9.860	9.342	9.340	8.497
285.0	167.8	188.7	61.56	80.58	129.0	72.34	76.83	40.53	37.83	51.76	75.23	78.32	72.72	67.72	51.11	373.5	9999.9	9999.9	9999.9	 2887	120.2	103.6	102.3	83.71	62.29	54.63	51.52	48.03	47.14	41.79	39.76	35.83	39.63	38.44	32.74	30.81	26.24	27.89	24.63	24.48	22.07	17.52	17.12	13.86	13.02	10.82	11.70	11.40	12.49	9.662	8.839
290.0	242.1	193.6	158.0	243.3	238.5	187.3	154.4	105.0	88.02	112.1	108.1	123.2	142.0	186.8	150.9	157.4	796.6	9999.9	9999.9	9999.9	 3988	159.8	137.1	117.6	99.81	73.13	58.77	56.90	52.62	48.56	45.25	41.03	38.92	40.96	34.79	35.61	29.53	28.81	29.24	24.83	21.48	21.90	19.32	16.21	13.21	12.97	12.62	11.14	11.04	10.98	9.876
295.0	427.9	233.1	345.6	333.4	337.4	295.8	230.9	153.1	136.3	172.2	171.8	195.1	194.1	276.2	355.9	323.9	335.7	915.0	9999.9	9999.9	9999.9	 5437	200.7	167.4	145.0	116.2	79.30	69.72	65.10	57.13	51.56	46.96	45.99	44.04	44.74	38.20	34.47	30.86	28.80	27.11	24.71	22.29	20.75	18.44	15.44	15.83	14.50	14.35	11.01	12.76	11.69
300.0	526.3	465.7	575.2	431.5	424.4	385.2	391.0	364.6	231.8	276.9	277.8	252.4	284.5	303.7	508.8	568.2	452.0	418.6	940.8	9999.9	9999.9	9999.9	 6031	242.6	208.2	163.3	134.6	95.98	77.38	65.57	63.84	54.78	58.02	48.15	46.08	43.41	38.53	38.82	27.99	30.53	24.38	26.29	23.12	17.92	17.16	15.33	14.38	14.52	14.41	12.65	12.47
305.0	875.1	764.9	932.9	668.4	560.4	512.7	465.2	431.2	366.4	390.9	351.7	361.0	387.2	390.8	496.9	751.5	674.2	492.9	346.9	951.7	9999.9	9999.9	9999.9	 7287	314.9	246.1	188.1	151.7	106.6	85.17	78.26	75.12	61.21	55.66	53.81	50.03	41.47	39.35	37.59	34.38	29.91	30.60	26.85	22.46	21.57	19.54	17.38	16.40	14.29	13.40	13.88
310.0	822.0	957.5	930.3	852.2	633.4	703.4	593.3	511.5	523.3	451.7	466.0	485.2	436.6	469.8	541.2	697.8	895.4	691.0	342.3	310.3	994.7	9999.9	9999.9	9999.9	 7889	381.5	282.3	218.1	171.6	117.5	96.92	76.77	71.69	69.80	58.21	56.75	49.19	42.54	40.01	38.46	31.47	30.00	27.19	26.42	23.69	19.41	21.42	17.54	16.65	14.52	15.22
315.0	 1101	 1067	977.8	965.7	788.0	698.2	560.1	557.8	594.9	679.4	614.4	636.3	588.0	540.2	620.7	753.4	831.7	871.5	453.8	291.6	300.2	 1046	9999.9	9999.9	9999.9	 7245	430.4	323.2	252.3	184.3	136.5	98.72	90.13	82.02	69.29	60.34	55.88	49.71	40.46	41.20	37.28	31.20	30.81	28.24	24.62	24.71	21.38	19.37	19.48	19.08	16.58
320.0	 1122	 1422	 1196	 1011	876.0	790.3	616.4	616.2	655.0	719.9	763.2	704.0	674.9	577.6	596.3	739.6	768.7	748.1	666.2	342.1	257.6	316.7	 1096	9999.9	9999.9	9999.9	 7537	487.1	365.8	269.3	204.6	147.0	111.5	97.63	89.59	65.81	57.03	51.82	45.46	41.81	37.28	33.42	31.66	32.79	24.88	25.52	25.08	22.55	20.57	18.48	18.34
325.0	 1281	 1260	 1185	 1022	911.1	773.2	683.0	654.9	738.5	798.3	839.6	726.9	686.8	598.9	607.3	658.4	762.8	667.6	593.2	497.0	281.4	237.2	324.4	 1140	9999.9	9999.9	9999.9	 8514	521.2	383.8	302.6	240.2	165.0	113.4	107.5	79.20	68.13	57.32	53.77	47.91	41.14	39.03	35.86	33.43	30.61	25.23	27.02	22.49	20.82	19.93	17.53
330.0	 1496	 1328	 1214	 1021	970.9	751.3	637.6	661.2	790.1	824.3	879.8	816.6	748.1	611.4	547.6	618.6	614.5	586.8	486.0	513.5	451.7	261.7	262.4	346.6	 1121	9999.9	9999.9	9999.9	 8554	575.0	419.2	328.3	254.5	166.0	128.5	103.9	80.13	71.59	54.73	53.26	43.71	40.45	34.47	31.30	31.72	31.40	26.39	24.75	19.69	21.95	18.56
335.0	 1570	 1402	 1132	 1021	947.6	821.6	674.1	629.8	774.7	871.8	914.6	825.1	728.1	590.6	532.9	591.8	638.5	578.6	469.9	385.9	488.5	371.4	246.9	252.1	348.4	 1150	9999.9	9999.9	9999.9	 9396	604.3	463.9	339.5	257.9	183.2	133.5	98.58	75.36	69.86	51.01	46.36	44.26	39.19	35.88	33.26	30.13	25.00	27.49	24.98	25.21	20.29
340.0	 1363	 1531	 1313	 1024	 1107	820.0	782.8	714.9	717.9	837.0	854.7	839.2	684.5	569.6	517.3	600.0	587.5	531.0	434.1	325.3	320.8	470.9	325.0	224.9	272.4	379.4	 1151	9999.9	9999.9	9999.9	9999.9	662.8	477.4	357.3	274.5	194.2	125.9	99.36	77.64	64.31	50.32	46.18	44.35	36.74	33.03	29.59	31.36	27.96	25.20	25.31	21.41
345.0	 1466	 1385	 1212	 1201	872.8	767.4	661.2	711.0	709.1	788.5	836.7	771.7	659.7	502.6	504.1	532.6	535.7	526.0	414.7	325.5	286.0	319.7	458.1	293.9	246.8	279.1	371.3	 1132	9999.9	9999.9	9999.9	9999.9	689.4	511.2	362.3	272.0	196.4	124.3	96.57	75.45	57.54	49.87	45.40	39.76	35.11	33.58	31.25	28.71	25.17	26.98	24.54
350.0	 1734	 1290	 1307	913.9	 1007	837.9	692.2	693.1	740.3	759.5	805.5	770.5	616.1	504.0	472.8	496.7	514.1	477.5	396.0	334.6	269.8	248.1	355.0	450.6	277.5	244.7	287.0	379.3	 1156	9999.9	9999.9	9999.9	9999.9	732.0	522.4	388.0	270.5	193.6	129.2	98.45	73.24	57.97	48.63	44.60	36.14	34.43	33.88	27.59	26.43	27.23	24.23
355.0	 1569	 1217	 1289	 1087	978.2	823.5	720.9	537.1	669.6	737.1	743.7	716.9	602.2	489.2	446.8	481.2	480.5	474.0	395.1	329.8	264.4	255.9	267.7	410.2	431.2	267.5	280.1	299.0	384.9	 1181	9999.9	9999.9	9999.9	9999.9	757.4	541.1	375.7	271.4	181.2	116.1	96.14	72.09	57.34	47.99	45.62	36.65	34.74	30.17	28.23	29.00	26.64
360.0	 1906	 1543	 1476	 1263	 1080	716.5	704.2	588.1	629.9	683.4	771.9	647.1	578.1	459.8	454.6	455.1	426.8	429.0	411.2	323.7	293.7	278.1	284.8	302.8	434.8	377.4	270.2	282.9	291.7	411.3	 1192	9999.9	9999.9	9999.9	9999.9	749.2	534.1	358.0	259.3	182.3	117.1	91.57	72.65	55.10	45.40	38.16	37.14	32.32	29.37	28.32	24.39
365.0	 1625	 1574	 1325	 1196	882.4	673.9	650.6	589.6	590.1	673.9	727.3	648.8	594.1	442.8	423.1	442.9	434.3	430.6	393.0	317.7	311.6	308.0	290.2	305.8	330.9	464.7	370.4	294.7	291.7	311.0	405.9	 1157	9999.9	9999.9	9999.9	9999.9	754.6	516.5	347.5	246.7	169.3	115.4	85.72	69.59	57.17	48.60	38.69	36.55	31.96	29.18	28.36
370.0	 1610	 1486	 1403	969.8	 1110	861.6	664.0	569.9	565.4	657.9	627.1	562.5	546.0	524.0	438.9	441.4	424.7	414.7	379.8	343.6	337.4	321.5	305.4	325.3	341.9	381.6	510.8	380.9	305.9	301.9	310.5	401.6	 1165	9999.9	9999.9	9999.9	9999.9	713.9	503.0	339.0	239.1	168.6	102.4	80.27	69.03	50.17	39.34	34.86	31.47	31.55	27.72
375.0	 1718	 1398	 1406	 1059	967.9	804.7	721.2	560.7	535.3	614.8	652.1	569.0	549.7	479.5	417.2	430.5	414.0	405.4	432.6	366.5	338.0	337.5	332.8	345.3	359.7	376.4	450.1	496.9	362.5	304.3	285.8	308.7	395.4	 1174	9999.9	9999.9	9999.9	9999.9	703.4	488.1	312.2	233.7	160.9	105.7	81.65	60.98	50.21	38.70	34.62	33.50	28.05
380.0	 1605	 1287	 1268	 1259	991.4	982.6	665.5	566.8	598.4	614.3	572.6	571.6	530.2	464.4	422.1	421.3	458.7	431.6	416.0	386.2	371.6	370.4	386.6	386.7	374.2	380.1	378.4	479.9	494.4	346.6	297.8	284.3	319.5	414.9	 1186	9999.9	9999.9	9999.9	9999.9	657.9	451.1	303.7	224.0	155.8	106.1	79.65	58.31	47.81	37.45	34.35	28.67
385.0	 1273	 1438	 1340	 1360	980.4	830.4	653.3	508.2	561.2	603.3	530.5	572.2	535.2	451.3	445.6	396.7	425.6	419.3	413.1	388.5	398.9	402.1	401.7	410.8	422.1	411.9	402.2	425.0	523.4	458.7	335.6	299.6	305.6	311.0	421.1	 1134	9999.9	9999.9	9999.9	9999.9	633.0	430.3	291.8	216.1	149.2	104.2	74.18	58.37	40.67	39.38	34.01
390.0	 1496	 1584	 1235	 1063	 1065	714.4	615.3	627.6	626.4	660.3	637.6	566.1	557.0	454.1	444.6	408.6	428.7	421.3	412.0	400.6	426.1	436.3	446.7	443.8	452.2	444.8	432.3	424.5	439.1	534.9	419.3	325.5	320.3	307.2	317.7	394.4	 1121	9999.9	9999.9	9999.9	9999.9	589.8	417.1	278.9	198.7	129.7	97.13	70.29	56.47	42.67	35.65
395.0	 1532	 1517	 1397	 1206	 1158	886.2	668.5	633.0	563.4	695.7	570.4	584.4	521.2	434.8	418.0	426.3	434.5	438.1	451.6	403.7	439.2	451.6	465.5	470.0	493.8	459.6	472.8	462.6	468.4	462.3	532.0	402.0	336.6	306.3	300.1	306.2	379.6	 1095	9999.9	9999.9	9999.9	9999.9	566.6	380.3	261.3	186.4	134.2	90.16	69.35	54.16	43.38
400.0	 1254	 1421	 1416	 1000	 1012	874.5	569.4	625.2	545.1	602.7	563.9	555.2	510.4	469.1	434.9	421.9	436.7	425.1	428.9	443.6	437.1	481.7	505.5	498.0	508.3	518.7	521.0	483.4	476.6	447.8	508.6	513.1	394.1	336.7	320.1	293.8	289.7	353.2	 1081	9999.9	9999.9	9999.9	9999.9	537.5	351.3	245.2	180.9	121.8	82.43	64.14	50.89
405.0	 1451	 1199	 1077	 1002	782.8	727.2	584.2	476.0	525.0	603.6	532.9	521.2	464.7	460.3	428.6	430.5	419.2	422.7	455.9	458.3	461.6	500.4	511.6	514.9	532.6	545.6	529.5	502.4	495.1	469.2	451.8	519.4	489.4	366.4	320.6	292.0	270.6	259.3	330.7	 1035	9999.9	9999.9	9999.9	9999.9	495.1	329.8	229.2	167.0	118.6	84.20	60.20
410.0	 1434	 1074	 1082	 1006	824.5	625.3	560.1	513.6	584.5	576.3	532.4	492.2	475.6	419.9	435.4	453.0	419.0	443.7	448.5	456.7	464.4	502.6	518.7	553.5	550.7	564.6	556.7	556.4	504.7	497.7	461.0	464.8	545.3	466.0	343.1	315.0	267.3	244.6	243.2	312.9	 1001	9999.9	9999.9	9999.9	9999.9	480.1	316.7	215.1	158.0	115.9	76.85
415.0	 1341	 1136	 1009	986.2	989.0	645.6	573.8	546.9	503.6	565.8	550.3	522.3	488.7	445.3	434.2	426.0	400.8	437.3	404.4	458.4	453.6	483.5	535.3	560.3	578.2	574.7	567.2	559.0	528.5	511.3	478.2	459.8	504.7	539.5	431.7	337.7	282.8	248.6	230.1	221.8	292.5	988.7	9999.9	9999.9	9999.9	9999.9	433.3	294.2	190.9	145.4	104.8
420.0	 1469	 1111	 1066	878.9	838.5	693.6	621.1	479.5	505.9	512.3	489.7	511.3	499.2	467.2	459.3	448.6	422.8	411.5	435.2	442.6	472.2	477.9	498.2	545.6	559.7	590.8	580.6	587.5	540.5	525.0	488.6	455.5	457.0	493.1	505.8	371.1	284.0	244.9	224.0	203.3	201.5	275.5	967.2	9999.9	9999.9	9999.9	9999.9	416.4	269.2	191.4	133.4
425.0	995.4	 1120	899.4	775.0	767.6	643.4	519.2	545.5	535.2	493.9	515.2	435.1	474.1	447.1	427.5	427.9	422.1	415.3	431.0	404.6	468.0	472.3	519.4	535.8	553.0	557.9	573.8	533.8	531.3	511.1	477.1	472.1	441.0	459.6	472.8	424.2	287.1	242.4	210.0	184.6	177.3	182.8	257.8	945.8	9999.9	9999.9	9999.9	 9312	383.3	258.8	177.1
430.0	802.9	860.0	 1056	905.4	718.8	676.6	616.7	527.8	492.8	536.6	464.9	482.3	462.1	451.2	465.9	444.2	419.7	428.3	417.8	418.5	423.4	467.8	487.3	535.2	566.6	555.5	560.2	537.7	538.7	506.7	484.7	470.4	453.5	415.5	405.9	439.2	342.9	253.6	209.3	184.2	164.0	166.3	166.7	236.9	916.0	9999.9	9999.9	9999.9	 8414	366.4	247.9
435.0	 1290	998.5	783.3	885.0	763.5	597.5	471.7	425.8	449.4	527.9	482.0	445.8	464.3	436.6	422.3	410.4	405.3	407.1	411.2	411.3	445.7	468.0	481.1	504.1	511.0	521.8	532.0	522.7	517.8	508.0	468.3	463.8	437.2	416.0	379.2	371.0	379.0	287.8	208.2	185.1	155.5	155.6	153.7	159.7	236.8	906.4	9999.9	9999.9	9999.9	 8382	349.1
440.0	 1195	859.9	725.7	818.5	633.0	639.7	538.0	491.0	438.9	498.4	529.4	444.9	444.3	433.9	431.6	422.7	391.0	377.2	371.5	391.8	401.8	442.0	468.4	490.3	501.6	521.7	529.1	506.7	486.5	484.9	463.0	445.5	426.1	406.2	374.1	348.0	341.4	332.4	241.5	183.5	161.5	144.0	137.2	134.7	145.7	224.5	897.7	9999.9	9999.9	9999.9	 7438
445.0	 1033	941.0	804.9	782.8	621.2	569.0	456.1	484.6	402.0	421.7	493.5	430.1	445.8	422.0	400.2	418.6	383.5	352.6	373.5	378.3	397.0	409.4	432.2	450.5	492.5	500.0	506.5	508.3	472.1	473.2	450.7	431.1	423.1	392.8	366.5	333.1	306.7	309.2	276.0	204.1	158.5	147.5	129.5	125.5	121.6	134.8	217.2	903.4	9999.9	9999.9	9999.9
450.0	 1035	781.9	760.5	789.6	644.8	565.7	459.9	448.0	412.6	440.7	450.5	437.6	379.3	424.1	374.8	392.1	387.1	374.8	351.5	355.2	360.8	379.3	387.8	432.0	450.6	441.8	482.2	469.5	465.0	453.9	434.4	418.9	386.2	386.6	347.5	315.6	289.9	265.9	275.5	239.2	172.6	143.2	129.2	121.0	116.9	124.9	135.9	225.8	893.2	9999.9	9999.9
455.0	917.6	 1016	829.3	605.9	548.3	650.3	411.9	386.8	433.8	447.7	418.9	387.6	368.9	378.6	357.3	376.4	372.5	352.0	327.6	331.9	332.5	357.7	379.8	392.7	408.9	417.3	445.2	446.3	443.3	431.1	408.7	378.5	387.7	364.5	340.3	301.2	284.2	238.6	239.1	246.6	197.0	155.0	136.7	116.4	112.6	104.9	107.0	126.5	207.3	888.2	9999.9
460.0	837.6	989.5	747.3	713.6	687.1	501.5	393.5	361.1	356.5	442.5	369.3	383.2	384.2	346.2	347.3	343.1	340.7	324.6	318.7	317.1	334.3	314.4	359.9	379.7	384.9	380.9	395.2	403.2	406.4	386.3	369.4	374.8	354.7	348.8	322.0	288.2	272.4	235.0	218.4	217.5	217.3	160.1	133.0	122.5	107.5	105.7	105.2	113.5	111.6	198.4	854.1
465.0	763.3	 1011	774.2	730.3	573.6	591.4	458.3	402.8	402.2	343.6	363.2	380.7	362.0	329.4	327.9	329.9	331.7	326.3	296.3	310.5	285.9	302.5	342.6	350.4	349.4	377.2	376.1	377.9	355.4	339.5	368.7	344.0	326.2	333.8	321.0	276.6	264.8	228.0	195.2	176.3	206.1	191.4	143.2	119.6	108.1	98.85	94.41	98.87	110.5	119.7	195.4
470.0	 1075	905.2	795.9	697.7	583.7	549.7	382.5	390.2	306.6	335.5	339.7	328.8	333.9	338.7	325.2	352.2	304.6	294.4	299.1	282.0	274.9	283.0	310.9	299.0	321.4	344.4	351.6	339.5	330.3	338.3	316.7	323.9	310.9	307.3	274.6	265.0	240.5	219.7	191.9	170.8	171.7	178.5	160.1	128.7	120.4	99.60	95.30	94.78	96.52	94.79	104.1
475.0	819.1	733.4	821.7	523.9	471.8	413.5	279.2	307.6	279.3	322.0	288.1	296.2	283.8	275.6	276.1	263.9	290.1	267.0	247.8	244.5	249.7	259.8	272.4	264.7	280.5	305.1	317.4	304.3	301.9	297.4	285.6	273.0	271.9	273.0	261.7	243.9	226.9	203.3	183.3	161.1	152.0	146.0	165.5	134.3	105.8	92.50	87.42	83.83	83.02	81.26	82.27
480.0	728.0	715.9	681.1	596.4	401.8	288.8	294.7	253.4	272.7	254.3	279.8	282.7	260.2	255.7	273.5	276.0	258.3	246.0	241.8	233.5	241.7	235.1	259.6	243.6	269.5	274.1	285.7	286.3	287.9	272.0	272.0	249.7	254.7	270.3	243.4	222.0	219.5	192.3	170.4	159.8	141.3	137.0	143.8	141.7	110.5	84.26	83.36	79.81	76.48	69.10	70.87
485.0	724.9	517.4	513.0	447.7	395.3	339.8	299.4	243.8	248.6	263.1	245.4	274.8	255.4	250.5	249.0	247.3	216.9	240.5	218.6	212.5	209.4	221.8	234.3	243.6	230.2	238.8	242.6	259.5	252.8	246.9	245.4	231.8	245.1	232.6	234.1	214.1	200.2	180.6	166.0	146.7	132.7	122.2	115.4	121.1	126.2	99.67	84.46	75.73	70.48	69.16	67.20
490.0	684.1	487.2	543.7	501.9	423.0	284.5	294.0	246.7	249.2	229.7	224.8	244.6	198.9	233.9	241.9	251.0	223.8	222.6	215.9	217.2	203.9	220.4	211.9	230.1	223.3	244.5	227.1	239.3	235.0	234.6	229.1	224.7	225.9	207.3	202.8	217.2	187.8	175.8	159.0	149.7	130.1	124.0	113.9	112.0	118.5	104.3	81.66	72.37	69.37	69.68	61.61
495.0	644.7	608.6	537.0	403.6	365.8	295.4	260.6	254.0	245.7	229.1	221.3	208.6	224.8	245.0	218.6	239.0	226.0	206.3	202.5	208.5	196.4	203.6	189.3	201.0	212.6	214.1	214.0	219.6	217.1	228.1	215.8	212.5	197.6	204.3	195.6	183.4	177.5	164.6	143.0	140.9	128.2	116.1	105.5	97.93	98.92	114.8	92.00	72.61	73.02	64.59	62.19
500.0	426.7	516.4	575.1	373.1	375.1	308.3	241.0	195.3	189.5	185.0	191.4	222.6	204.5	203.3	213.3	199.4	201.0	195.4	193.2	175.0	169.5	184.8	191.1	200.1	207.0	188.3	202.4	200.9	189.1	206.3	203.0	185.2	185.1	190.0	184.2	180.1	167.3	160.1	138.9	137.6	123.9	99.85	100.1	98.95	88.52	97.07	103.8	84.33	72.03	64.07	57.71
505.0	367.8	414.2	532.0	386.2	313.3	266.0	213.6	169.3	201.0	180.0	188.8	209.9	199.2	186.0	182.4	173.1	186.2	177.1	163.0	179.8	177.0	166.2	182.7	174.1	168.1	180.1	174.1	186.7	189.1	180.5	177.7	174.1	172.9	169.8	173.2	162.4	159.8	134.4	138.2	126.1	123.2	103.1	99.42	89.42	85.15	87.95	93.13	91.09	69.22	62.33	54.32
510.0	519.0	387.6	451.3	375.0	310.7	283.8	214.9	183.5	172.0	159.3	183.4	173.4	156.1	179.9	161.8	184.5	171.7	176.7	174.7	152.6	159.1	148.5	168.8	154.8	162.1	158.8	167.0	173.1	173.2	167.3	156.3	168.4	157.0	160.8	165.2	153.7	138.4	125.0	122.5	115.9	109.3	101.6	94.70	86.13	80.24	73.96	78.87	86.91	77.17	65.78	53.90
515.0	598.7	382.9	445.5	304.8	312.7	177.6	115.6	168.2	134.7	149.3	144.1	122.8	126.4	190.5	162.7	184.3	175.7	166.0	153.7	145.7	144.9	132.3	152.5	158.4	144.3	160.9	154.1	149.4	153.7	153.9	151.2	151.2	152.3	144.3	145.0	138.6	133.4	123.4	115.1	94.56	98.28	88.72	91.19	88.97	73.01	76.22	69.78	74.56	78.51	66.03	50.55
520.0	461.7	318.5	241.7	312.9	244.4	208.1	177.4	159.7	146.1	137.9	121.0	128.4	150.3	134.0	138.5	137.2	161.5	142.0	145.1	132.0	143.2	134.9	142.6	141.9	147.5	147.4	135.5	142.4	147.9	140.8	137.5	149.1	142.9	140.9	136.0	131.1	123.1	115.6	103.1	100.3	91.20	88.01	87.37	76.90	69.90	73.15	61.79	60.78	73.38	68.47	55.75
525.0	379.8	333.9	226.4	229.4	248.6	141.7	123.2	113.9	125.5	100.1	136.2	131.9	128.5	129.7	123.7	125.2	137.1	132.2	127.4	134.6	119.4	131.5	133.3	137.2	132.2	137.7	137.9	133.8	131.7	123.1	122.0	119.1	120.9	128.6	118.4	117.4	108.6	104.6	97.18	87.80	79.69	81.62	81.57	74.81	65.94	62.86	56.79	59.80	56.24	65.95	63.40
530.0	337.2	201.3	264.5	231.3	250.4	182.9	110.8	107.6	119.6	108.4	130.5	110.7	105.7	128.5	119.9	120.4	123.4	110.7	122.8	109.2	114.6	128.4	121.6	121.3	123.6	127.6	131.8	122.1	124.3	114.5	113.6	117.2	121.2	112.2	115.7	108.2	101.5	94.25	83.19	82.45	78.74	75.14	71.65	63.77	63.27	60.05	58.75	55.51	52.04	57.58	61.81
535.0	233.1	193.1	245.7	213.6	190.4	118.1	98.63	107.3	104.3	110.4	81.80	110.6	107.9	120.9	146.3	123.7	102.1	114.0	123.7	108.4	111.5	105.5	125.5	117.4	108.4	120.2	118.7	110.3	112.3	112.5	107.3	105.5	106.2	108.7	104.7	100.2	93.35	91.04	82.78	73.18	70.85	66.58	63.12	60.24	60.94	56.88	52.24	54.84	47.56	48.03	52.95
540.0	335.8	228.7	242.0	294.6	147.7	168.6	123.1	118.9	99.80	93.73	78.71	87.02	82.52	105.6	233.2	181.2	113.4	104.6	109.6	104.5	93.09	113.5	104.8	110.2	96.11	104.3	93.94	108.3	102.3	110.0	96.99	100.0	96.92	103.3	97.83	89.93	85.43	81.65	76.43	71.20	68.11	64.21	56.13	59.97	50.73	49.98	50.86	52.72	44.33	41.55	41.67
545.0	309.8	214.3	192.0	232.5	172.4	148.6	112.0	84.12	84.04	89.92	85.65	84.01	75.81	99.99	316.6	520.8	172.1	104.2	103.2	97.10	94.04	85.25	97.68	97.36	93.48	103.4	98.02	90.19	98.57	92.48	95.37	88.96	95.31	90.17	86.91	89.82	77.97	77.30	67.85	66.05	65.01	58.74	55.34	49.38	47.78	47.66	44.50	45.92	42.98	46.84	39.18
550.0	218.3	258.0	191.0	236.5	128.7	102.6	112.1	65.43	89.20	68.98	82.54	87.75	81.75	81.49	171.4	 1186	479.4	88.46	88.73	94.60	86.14	93.99	89.88	93.66	89.41	95.11	89.87	94.39	93.20	89.59	83.76	82.85	85.34	92.89	87.52	73.21	82.09	72.37	64.16	56.99	55.38	49.49	43.66	49.89	45.85	44.70	40.08	39.05	39.52	37.90	36.21
