Sample:	'SLABO1-5-5-320
File name:	1P3.FD3
Run Date:	15:50:48, 08/17/2022
Operator:	Administrator
Comment:	'

Instrument
Model:	F-7000 FL Spectrophotometer
Serial Number:	2354-007
ROM Version:	5J14000 06

Instrument Parameters
Measurement type:	3-D Scan
Data mode:	Fluorescence
EX  Start WL:	200.0 nm
EX  End WL:	450.0 nm
EX Sampling Interval:	5.0 nm
EM  Start WL:	280.0 nm
EM  End WL:	550.0 nm
EM Sampling Interval:	5.0 nm
Scan speed:	12000 nm/min
EX Slit:	5.0 nm
EM Slit:	5.0 nm
PMT Voltage:	700 V
Response:	Auto 
Corrected spectra:	Off
Shutter control:	On
Contour interval:	25.000

Peak integration
Integration method:	Rectangular
Sensitivity:	1
Threshold:	1.000

Peaks
No.	ApexEX/EM(nm)	Height(Data)
1	205.0/330.0	801.5
2	205.0/350.0	801.0
3	205.0/360.0	680.1
4	205.0/450.0	533.6
5	205.0/530.0	175.7
6	210.0/385.0	764.7
7	210.0/470.0	495.8
8	210.0/480.0	418.0
9	210.0/510.0	255.7
10	210.0/540.0	134.1
11	215.0/320.0	711.8
12	215.0/355.0	728.1
13	215.0/395.0	694.5
14	215.0/455.0	620.1
15	215.0/485.0	362.8
16	215.0/520.0	247.6
17	220.0/300.0	567.6
18	220.0/325.0	789.7
19	220.0/345.0	748.7
20	220.0/475.0	471.2
21	225.0/305.0	586.2
22	225.0/315.0	602.8
23	225.0/330.0	714.5
24	225.0/340.0	719.1
25	225.0/350.0	742.3
26	225.0/360.0	790.5
27	225.0/370.0	718.5
28	225.0/490.0	422.4
29	225.0/510.0	317.8
30	230.0/345.0	735.5
31	230.0/380.0	750.0
32	230.0/395.0	822.5
33	230.0/410.0	813.8
34	230.0/425.0	833.8
35	230.0/485.0	516.7
36	230.0/545.0	187.9
37	235.0/400.0	824.2
38	235.0/415.0	884.0
39	235.0/500.0	379.5
40	240.0/545.0	183.1
41	245.0/405.0	836.5
42	245.0/420.0	858.7
43	250.0/325.0	305.0
44	250.0/375.0	619.6
45	250.0/400.0	791.9
46	250.0/435.0	901.7
47	250.0/540.0	228.5
48	270.0/425.0	 1279
49	275.0/305.0	640.6
50	275.0/430.0	 1291
51	280.0/310.0	734.2
52	280.0/435.0	 1264
53	285.0/315.0	785.8
54	290.0/320.0	700.1
55	295.0/325.0	600.1
56	300.0/335.0	604.4
57	305.0/340.0	595.0
58	310.0/345.0	603.4
59	315.0/355.0	574.3
60	315.0/405.0	931.3
61	320.0/360.0	639.5
62	325.0/365.0	690.0
63	325.0/420.0	953.9
64	330.0/370.0	708.3
65	330.0/415.0	955.9
66	330.0/425.0	954.7
67	335.0/380.0	756.6
68	340.0/385.0	756.3
69	345.0/390.0	756.0
70	350.0/395.0	732.0
71	355.0/405.0	733.1
72	365.0/415.0	728.2
73	370.0/425.0	683.5
74	420.0/490.0	185.1
75	425.0/495.0	167.6
76	430.0/315.0	11.56
77	430.0/330.0	13.87
78	440.0/340.0	12.34
79	440.0/515.0	108.5

Data Points
	200.0	205.0	210.0	215.0	220.0	225.0	230.0	235.0	240.0	245.0	250.0	255.0	260.0	265.0	270.0	275.0	280.0	285.0	290.0	295.0	300.0	305.0	310.0	315.0	320.0	325.0	330.0	335.0	340.0	345.0	350.0	355.0	360.0	365.0	370.0	375.0	380.0	385.0	390.0	395.0	400.0	405.0	410.0	415.0	420.0	425.0	430.0	435.0	440.0	445.0	450.0
280.0	23.21	35.66	28.46	23.54	68.90	41.45	37.51	16.50	26.97	28.71	39.15	60.68	49.57	10.69	21.13	 4100	9999.9	 8163	219.2	47.33	35.14	41.29	31.67	27.68	26.56	24.55	20.94	22.39	18.55	18.96	13.51	18.67	12.38	16.32	12.76	13.46	9.744	7.779	8.161	8.384	8.605	6.640	5.554	5.737	4.283	4.850	4.170	2.716	3.270	4.006	3.789
285.0	125.7	171.5	128.0	160.4	135.8	151.2	96.66	64.89	55.02	65.79	122.7	122.3	143.9	92.25	45.81	310.7	 9738	9999.9	9999.9	 1459	67.67	51.42	52.66	38.15	34.02	29.89	26.36	21.72	23.64	18.45	16.31	16.84	16.36	17.51	13.13	11.28	10.17	10.36	10.98	8.379	8.190	8.159	6.795	6.021	5.905	3.732	3.369	4.816	4.600	3.357	3.431
290.0	450.5	235.1	211.2	240.6	271.1	219.7	203.5	122.5	113.5	142.2	141.7	150.5	157.4	269.0	155.9	120.5	714.5	9999.9	9999.9	9999.9	 1959	95.55	72.82	58.83	48.53	37.35	31.25	27.84	25.95	21.41	21.48	16.67	17.01	19.84	15.68	16.05	13.54	13.12	11.72	9.535	9.180	8.770	6.816	7.007	5.187	4.485	4.579	5.745	4.722	5.117	4.130
295.0	451.7	418.7	373.6	336.5	339.3	368.6	297.9	183.9	121.7	163.8	190.3	211.4	172.9	282.2	409.7	214.4	190.4	811.4	9999.9	9999.9	9999.9	 2521	108.5	89.56	79.14	54.74	44.43	38.98	30.00	27.20	24.02	20.92	19.42	18.79	17.37	15.93	14.22	15.44	12.90	13.18	9.602	8.854	8.717	9.406	6.506	6.880	6.064	5.008	5.219	4.998	5.381
300.0	671.8	404.8	444.6	414.3	567.6	514.9	427.5	246.6	167.1	189.3	204.2	219.0	191.8	232.1	468.4	484.2	259.5	236.6	831.9	9999.9	9999.9	9999.9	 2692	143.0	116.1	80.82	63.29	46.06	38.50	34.98	28.29	24.45	22.81	22.31	22.64	18.56	16.08	14.60	14.30	13.13	9.741	9.835	9.037	8.636	8.228	6.790	7.881	7.456	6.372	6.401	5.339
305.0	649.9	582.6	509.8	541.2	516.4	586.2	418.6	290.4	231.1	193.3	194.5	232.0	216.6	235.5	327.5	640.6	523.5	271.3	253.6	842.7	9999.9	9999.9	9999.9	 3137	162.8	122.6	92.16	78.81	47.91	43.87	37.75	27.50	28.77	23.14	20.76	20.51	18.11	17.13	18.08	13.42	13.01	11.54	11.61	9.745	8.225	9.134	7.716	7.189	7.027	8.641	6.509
310.0	727.1	585.3	459.9	600.0	590.1	526.9	468.5	347.7	243.1	205.9	239.4	229.7	256.1	277.3	330.7	425.4	734.2	442.2	240.3	222.9	858.0	9999.9	9999.9	9999.9	 3328	168.4	135.6	104.6	84.03	55.91	40.86	37.98	32.85	31.21	30.10	25.01	23.83	17.63	17.16	16.96	15.35	13.22	12.89	9.960	10.23	10.03	9.296	7.006	5.444	8.417	7.946
315.0	617.7	699.4	644.5	577.4	593.8	602.8	518.7	365.4	267.2	242.6	235.2	245.8	245.1	277.3	342.1	378.7	507.5	785.8	358.8	196.9	213.3	876.9	9999.9	9999.9	9999.9	 2907	194.7	147.2	116.7	84.55	62.73	50.21	39.56	35.44	30.54	26.22	20.83	22.27	17.28	16.58	15.80	13.48	14.08	12.28	11.60	10.02	11.56	9.970	7.724	8.973	6.947
320.0	604.8	837.5	604.4	711.8	643.8	569.0	500.6	371.3	286.7	259.8	234.8	259.7	273.9	317.3	350.6	390.9	460.4	547.7	700.1	292.4	197.6	221.0	920.3	9999.9	9999.9	9999.9	 2917	218.1	157.0	121.5	92.83	64.59	54.74	40.70	35.51	28.86	25.54	21.77	18.80	16.32	16.32	16.99	13.21	11.23	9.241	11.46	9.803	8.939	9.143	9.876	6.993
325.0	603.9	571.5	572.7	628.8	789.7	609.4	579.5	435.0	319.6	284.3	305.0	285.9	298.2	340.6	399.3	397.6	442.2	426.9	590.5	600.1	242.8	179.9	225.3	903.9	9999.9	9999.9	9999.9	 3202	237.7	169.4	122.8	98.20	69.30	50.25	45.08	35.94	27.66	22.86	19.11	18.80	18.62	16.48	14.23	14.94	10.08	11.75	10.94	9.368	9.138	10.05	8.411
330.0	608.7	801.5	731.5	616.8	697.5	714.5	631.2	556.0	323.7	291.9	267.7	289.7	325.5	359.2	411.3	442.2	473.5	425.9	416.4	568.2	518.0	207.2	193.3	238.2	900.1	9999.9	9999.9	9999.9	 3264	246.3	176.1	138.9	104.8	74.08	53.24	40.08	36.48	29.16	23.51	20.83	19.06	17.00	15.34	14.35	11.94	12.64	13.87	10.34	9.188	10.54	8.929
335.0	603.8	630.3	548.3	608.1	729.4	637.1	614.3	524.2	353.0	352.7	313.0	309.6	302.4	374.6	440.1	441.8	476.5	456.6	421.8	404.2	604.4	418.1	206.9	180.3	237.2	921.1	9999.9	9999.9	9999.9	 3419	261.9	195.9	136.2	100.2	74.64	54.34	40.17	33.19	25.92	23.09	17.82	18.32	15.64	15.52	12.52	12.57	11.84	10.22	10.36	8.738	10.19
340.0	671.4	616.4	643.0	594.9	595.8	719.1	661.7	486.6	431.1	316.4	328.9	314.9	332.6	392.9	454.1	447.0	507.0	490.7	451.0	358.0	381.7	595.0	349.3	184.8	192.6	234.0	928.2	9999.9	9999.9	9999.9	 3852	285.1	203.3	145.8	111.4	72.23	56.44	35.47	33.70	27.11	19.72	17.20	17.23	14.17	14.50	13.20	10.19	12.32	12.34	10.53	11.31
345.0	806.7	518.0	622.6	569.6	748.7	689.2	735.5	590.1	438.3	370.4	332.8	361.5	380.4	410.0	468.8	497.4	510.7	524.8	469.9	378.9	340.7	392.3	603.4	328.9	212.7	196.1	248.6	909.3	9999.9	9999.9	9999.9	 4207	293.1	213.7	142.2	105.5	70.89	51.83	37.02	32.28	23.90	18.85	17.11	15.05	16.02	13.42	12.76	11.52	11.56	11.95	9.750
350.0	670.0	801.0	688.2	650.8	585.9	742.3	704.7	617.2	518.0	399.3	419.9	336.7	406.8	422.5	460.4	503.7	513.1	525.9	510.9	380.6	377.4	337.1	460.3	567.8	302.9	235.7	240.8	264.3	918.7	9999.9	9999.9	9999.9	 4367	302.8	197.5	133.9	102.4	65.92	43.34	37.43	27.77	22.47	20.80	18.54	15.01	14.89	13.71	14.35	11.31	10.80	10.64
355.0	616.6	583.9	637.3	728.1	654.7	682.6	698.8	644.5	513.6	454.2	401.9	412.8	432.2	462.3	492.6	509.7	568.0	558.5	538.5	468.8	419.3	375.6	375.0	574.3	545.3	309.9	262.3	246.6	280.7	924.2	9999.9	9999.9	9999.9	 4592	300.0	206.8	141.6	96.08	64.06	41.93	32.45	29.73	21.30	20.64	15.58	14.44	14.78	12.01	11.94	12.47	9.955
360.0	642.7	680.1	604.9	682.1	630.5	790.5	669.0	610.2	566.0	509.6	471.6	477.9	457.5	495.2	490.2	545.0	564.9	546.2	565.6	502.4	463.8	431.2	418.9	457.8	639.5	505.2	336.4	284.2	269.6	296.9	920.7	9999.9	9999.9	9999.9	 4275	297.1	202.7	130.9	89.49	65.01	41.98	33.47	26.52	19.79	17.34	15.39	16.02	14.64	12.55	9.944	11.00
365.0	528.7	585.2	671.6	701.9	701.7	644.5	573.6	628.0	552.7	521.1	536.4	476.8	473.5	489.6	555.3	573.2	650.8	597.5	583.2	544.5	509.0	487.1	485.5	446.7	514.7	690.0	506.3	352.3	306.4	277.9	281.2	919.9	9999.9	9999.9	9999.9	 4815	274.1	202.6	126.8	89.10	55.39	44.47	32.75	25.77	21.46	16.73	14.64	14.94	12.54	13.64	12.71
370.0	688.3	569.6	646.0	627.5	665.6	718.5	612.7	628.3	633.2	571.4	530.7	512.0	533.1	522.6	585.6	630.9	652.7	622.3	627.3	582.1	557.1	527.4	535.3	517.4	507.9	601.9	708.3	496.8	358.1	303.0	275.0	277.6	916.3	9999.9	9999.9	9999.9	 4696	262.7	180.3	121.4	75.97	58.11	40.41	30.21	24.82	18.03	15.93	14.22	13.27	14.34	12.57
375.0	701.0	603.6	697.8	671.9	666.0	677.3	734.2	649.1	634.0	527.7	619.6	539.0	568.4	587.1	610.2	610.7	712.7	680.1	654.9	641.7	593.5	601.6	605.2	595.7	609.6	581.1	664.4	729.0	481.5	370.0	292.9	271.8	278.8	907.5	9999.9	9999.9	9999.9	 4956	244.1	179.5	113.9	82.07	53.49	37.94	29.94	21.98	16.64	14.82	14.07	14.46	10.81
380.0	536.9	611.3	741.9	645.1	688.2	667.7	750.0	694.6	609.8	633.6	570.2	625.2	612.6	629.3	666.0	704.5	699.9	633.1	720.9	677.5	630.7	689.9	648.1	670.4	659.6	642.4	624.3	756.6	657.2	440.1	361.4	291.4	255.0	271.8	915.9	9999.9	9999.9	9999.9	 4465	234.6	157.1	106.9	74.33	51.65	36.70	28.12	22.32	17.00	15.28	14.77	14.31
385.0	604.1	563.8	764.7	700.7	667.9	749.3	728.5	773.6	671.9	655.7	643.2	632.1	635.9	682.2	680.4	743.1	744.6	754.3	707.9	696.0	689.4	696.2	706.7	726.8	711.2	711.8	689.6	670.5	756.3	610.4	411.6	335.0	284.4	247.1	267.6	898.1	9999.9	9999.9	9999.9	 4560	220.2	149.1	96.46	69.77	48.75	32.74	24.34	22.17	16.77	14.16	15.32
390.0	768.7	555.0	649.2	666.3	698.6	692.4	765.9	806.8	776.8	709.7	688.3	649.4	676.8	707.8	746.6	801.1	802.7	779.7	754.4	735.1	730.4	727.3	758.7	773.4	789.9	772.6	742.7	711.4	688.8	756.0	575.3	402.0	337.0	277.9	247.4	257.6	873.3	9999.9	9999.9	9999.9	 4332	200.8	133.3	92.62	66.08	44.65	33.49	24.63	18.72	15.43	14.60
395.0	643.7	508.6	633.4	694.5	658.8	788.8	822.5	813.9	732.4	748.7	747.3	718.5	715.9	769.3	830.8	877.1	878.8	842.1	797.7	758.1	759.1	771.8	803.9	810.7	811.2	826.0	792.9	773.7	697.1	699.6	732.0	510.5	398.4	316.1	272.6	238.5	249.1	855.5	9999.9	9999.9	9999.9	 4314	187.7	131.5	83.09	64.27	42.21	31.69	21.84	20.49	17.37
400.0	486.5	694.7	609.4	674.1	804.0	789.2	816.2	824.2	770.6	769.3	791.9	776.5	751.5	789.0	963.6	952.4	946.4	854.2	832.8	779.5	784.8	820.4	820.9	849.0	882.8	864.8	836.2	807.3	760.2	697.7	701.7	674.4	497.1	375.0	322.5	263.6	214.1	230.0	841.8	9999.9	9999.9	9999.9	 3833	188.9	115.3	80.08	58.98	43.21	29.80	23.57	18.64
405.0	591.0	554.1	610.3	596.8	768.3	802.1	811.6	809.3	805.6	836.5	743.8	759.1	801.5	904.2	 1021	 1043	 1029	885.6	837.2	795.1	823.4	830.3	850.6	931.3	890.2	917.6	898.3	853.0	807.9	720.4	673.6	733.1	668.6	444.7	390.4	295.3	236.3	204.4	223.5	823.4	9999.9	9999.9	9999.9	 3474	166.7	112.3	74.05	51.67	38.05	24.38	21.27
410.0	546.1	543.0	638.1	694.7	728.5	794.9	813.8	798.4	837.3	814.3	794.0	793.8	866.9	956.9	 1088	 1131	 1031	968.3	879.2	837.5	811.0	830.8	882.3	899.1	922.1	927.4	908.1	921.5	846.8	796.0	717.6	683.2	705.8	576.8	406.1	347.0	275.1	222.1	193.1	208.4	797.7	9999.9	9999.9	9999.9	 3168	155.9	99.88	66.67	51.39	36.44	26.69
415.0	547.0	559.3	547.6	616.0	659.5	745.5	809.8	884.0	878.3	805.2	803.3	855.0	838.2	 1035	 1152	 1159	 1120	 1030	905.9	834.2	835.7	821.3	857.4	903.7	936.4	948.0	955.9	947.0	872.1	812.4	733.6	678.5	693.2	728.2	536.8	407.8	337.3	255.1	210.0	169.6	187.8	799.1	9999.9	9999.9	9999.9	 3211	143.2	93.10	62.75	46.53	33.29
420.0	554.6	596.0	546.9	708.2	628.8	790.5	810.0	876.8	821.5	858.7	838.9	877.7	919.7	 1052	 1213	 1269	 1194	 1048	934.8	838.4	823.8	802.1	846.3	909.1	906.4	953.9	944.7	948.6	891.6	849.2	806.4	727.5	668.1	688.5	672.5	477.6	358.5	300.3	236.4	178.0	145.7	170.1	767.6	9999.9	9999.9	9999.9	 2801	133.8	86.99	61.78	42.69
425.0	525.6	541.1	591.2	793.5	587.4	692.7	833.8	787.5	822.5	841.9	869.1	892.4	929.2	996.5	 1279	 1265	 1236	 1078	918.8	818.7	812.4	814.9	856.9	862.2	890.1	948.0	954.7	937.8	922.6	849.8	788.7	729.0	682.4	658.0	683.5	584.1	418.7	320.4	248.7	200.5	158.7	132.5	160.8	769.9	9999.9	9999.9	9999.9	 2423	119.4	78.46	58.04
430.0	432.8	659.1	670.4	649.4	592.7	789.1	831.4	751.7	806.0	849.4	893.5	848.6	945.6	 1107	 1194	 1291	 1258	 1059	897.0	821.4	795.5	801.1	827.3	864.7	922.1	912.5	937.7	937.1	915.7	839.2	815.4	779.0	721.4	681.1	619.9	623.5	498.0	359.0	272.8	213.4	176.8	139.5	113.8	153.8	755.5	9999.9	9999.9	9999.9	 2124	118.3	75.27
435.0	483.9	552.7	508.8	615.2	689.7	750.4	761.7	785.0	815.0	822.9	901.7	857.3	927.0	 1084	 1259	 1260	 1264	 1106	926.6	819.5	744.8	797.9	810.4	833.9	837.9	903.6	893.9	904.7	869.1	857.7	808.6	781.5	725.0	681.6	624.3	591.9	568.4	422.8	303.7	243.2	196.1	149.0	133.6	106.2	144.9	741.6	9999.9	9999.9	9999.9	 2111	110.2
440.0	369.7	482.5	482.2	543.5	581.0	661.3	770.5	776.4	827.1	874.8	888.5	920.9	999.3	 1085	 1243	 1241	 1233	 1048	912.6	780.8	765.8	758.1	772.5	804.9	846.3	870.2	882.1	865.4	881.7	832.9	796.6	774.1	726.6	701.0	634.4	577.9	554.4	485.8	360.9	264.3	210.0	173.2	141.8	110.4	100.7	140.4	738.7	9999.9	9999.9	9999.9	 1881
445.0	368.1	449.5	434.4	566.7	565.2	669.0	680.7	707.5	768.8	729.9	836.9	837.3	883.8	 1028	 1219	 1245	 1207	991.2	871.3	750.8	717.8	727.6	764.1	770.4	831.5	828.6	829.7	849.3	813.9	801.8	774.0	760.5	719.2	691.5	626.0	565.1	514.4	478.6	407.6	287.7	227.3	186.3	154.0	125.6	107.3	101.0	131.6	741.0	9999.9	9999.9	9999.9
450.0	495.8	533.6	477.6	465.0	605.1	591.0	663.1	733.6	787.0	726.2	808.8	787.1	906.8	987.6	 1106	 1172	 1184	 1003	822.2	740.5	718.0	715.3	744.5	749.0	760.9	796.0	808.8	816.7	804.9	767.7	758.1	725.0	690.8	662.1	631.8	556.2	496.6	444.2	418.5	338.2	248.2	203.4	168.5	139.5	112.3	93.29	92.02	125.5	727.2	9999.9	9999.9
455.0	348.1	371.6	566.6	620.1	577.5	584.6	687.6	614.8	702.9	738.7	787.6	751.8	836.0	980.5	 1072	 1134	 1124	946.8	816.3	713.8	649.9	661.9	669.5	689.2	699.9	732.0	736.3	734.9	737.3	741.0	716.6	706.1	668.8	664.2	598.7	555.7	492.6	416.4	375.8	374.4	288.4	206.8	177.0	142.0	129.1	100.3	92.30	82.02	122.2	731.7	9999.9
460.0	423.4	440.2	420.0	464.8	554.8	519.9	584.0	659.1	685.2	679.0	671.8	748.9	792.6	864.6	 1041	 1109	 1047	905.2	699.1	643.4	607.6	629.9	620.4	643.2	675.0	682.9	716.4	722.2	701.9	698.6	669.2	659.0	653.8	614.1	584.1	527.7	465.6	407.7	349.2	335.3	315.2	246.9	183.0	157.3	135.5	113.4	96.23	81.43	78.12	122.3	721.0
465.0	464.0	396.4	423.6	384.1	482.5	571.6	609.2	619.0	645.4	641.4	662.3	717.9	758.2	831.3	922.9	994.7	990.5	833.4	742.1	605.5	569.4	578.6	590.2	585.5	616.0	635.6	644.3	638.0	639.0	637.3	606.7	621.2	611.6	591.4	558.7	525.7	452.3	393.5	341.3	304.6	296.8	262.0	196.7	162.9	136.5	124.2	93.82	85.22	82.23	71.13	118.8
470.0	359.7	434.6	495.8	389.8	434.4	540.2	509.9	575.7	587.9	599.9	595.6	697.2	721.0	744.5	857.9	910.6	878.3	777.6	662.3	557.7	559.4	538.0	509.0	542.3	549.3	575.0	599.8	583.1	567.6	580.5	566.0	556.3	561.2	557.9	525.5	488.0	418.2	393.3	332.8	286.2	267.3	266.3	228.0	177.9	149.4	129.8	105.5	97.60	80.96	77.64	73.81
475.0	230.0	354.9	327.2	343.4	471.2	428.4	495.8	515.0	506.9	486.3	547.8	628.4	614.4	693.5	752.9	819.0	853.8	691.7	604.4	529.2	482.9	504.5	482.3	492.2	523.9	533.3	534.9	545.8	554.0	508.1	508.2	516.1	502.8	511.6	481.0	460.2	397.1	367.5	310.0	274.1	251.3	239.1	246.3	188.6	148.2	121.9	106.6	96.76	82.52	72.96	65.93
480.0	291.9	349.4	418.0	324.9	399.3	431.1	468.2	452.0	461.6	479.1	562.7	537.2	607.5	625.6	725.1	719.0	719.2	669.4	519.6	481.2	457.6	452.2	449.5	463.5	472.7	487.0	482.3	492.9	498.2	490.0	478.7	472.2	469.3	460.5	446.1	412.0	375.4	336.3	304.1	268.5	236.3	212.4	217.3	213.0	150.5	128.9	111.4	93.54	83.99	76.23	62.44
485.0	255.0	305.7	325.9	362.8	360.7	361.1	516.7	420.8	446.0	422.9	503.7	524.9	583.3	581.9	657.0	671.6	652.5	612.7	519.9	473.7	435.1	414.9	427.1	437.2	453.6	445.7	465.6	471.2	449.2	443.7	438.4	442.3	447.5	441.8	423.8	405.8	345.5	327.7	291.3	267.7	227.2	210.3	185.9	193.9	183.7	142.6	107.8	95.99	87.61	81.65	69.70
490.0	259.0	259.9	293.4	331.5	375.7	422.4	383.3	414.2	414.3	417.8	480.8	472.3	572.9	571.5	619.9	652.0	622.7	544.3	454.0	429.6	414.8	391.6	395.4	402.0	405.3	419.2	426.3	427.9	414.8	416.4	413.7	406.9	406.5	405.5	389.7	379.8	341.9	312.0	274.2	256.7	220.0	205.6	180.7	177.2	185.1	161.4	122.7	103.4	83.81	75.67	70.57
495.0	175.7	262.3	233.8	343.5	243.8	299.8	327.5	338.2	401.4	457.8	459.0	452.8	484.5	500.6	595.7	596.6	551.6	512.2	447.2	386.1	386.0	368.4	361.9	367.1	375.0	365.8	387.2	383.9	381.4	388.4	364.1	373.7	373.6	373.7	363.2	346.5	318.5	284.3	261.8	242.4	213.8	204.1	178.4	164.6	161.6	167.6	123.5	101.0	93.13	77.51	70.67
500.0	223.8	234.2	267.3	274.9	236.4	326.1	327.2	379.5	327.6	379.1	397.7	415.3	441.6	504.7	556.8	549.8	557.5	481.3	397.6	382.7	361.5	339.0	325.9	337.9	348.3	341.0	333.4	357.3	349.9	355.7	335.0	329.6	350.8	355.4	335.3	322.4	306.2	277.6	247.1	226.2	199.4	186.4	175.5	151.8	141.7	148.0	143.3	112.2	97.41	78.38	75.31
505.0	234.4	252.1	216.9	277.8	243.8	271.9	301.6	359.4	351.8	334.0	341.7	389.2	424.6	458.3	498.1	532.1	459.0	430.8	371.6	354.7	302.7	319.7	295.7	294.4	306.8	303.8	311.2	328.5	321.0	322.4	320.7	307.6	319.7	314.0	313.0	297.0	266.3	256.0	229.7	209.4	191.4	179.0	164.0	140.1	133.5	124.5	131.3	123.0	100.4	82.65	70.58
510.0	163.1	165.2	255.7	206.2	229.1	317.8	302.2	293.4	302.8	317.4	350.0	349.4	348.3	419.4	439.1	483.0	436.7	404.9	356.2	305.4	288.2	275.6	290.7	289.8	264.4	271.6	290.7	291.2	279.3	283.9	280.3	282.2	301.0	290.3	283.8	261.9	249.4	225.8	214.6	192.9	172.9	170.4	148.0	143.4	130.9	114.1	119.1	120.0	103.5	77.22	69.24
515.0	155.9	161.4	210.7	247.4	229.8	228.8	261.5	267.4	253.8	285.3	292.4	299.3	343.3	376.7	412.3	406.9	384.6	357.4	306.2	289.9	253.0	252.2	245.6	262.6	248.9	247.4	252.1	253.6	261.2	262.2	263.4	257.6	259.4	245.5	264.8	248.1	227.0	213.8	202.0	172.2	156.4	149.5	139.5	133.5	116.4	112.1	98.28	107.4	108.5	89.16	71.86
520.0	180.6	201.1	211.2	247.6	179.6	237.9	262.2	237.9	221.5	275.2	267.5	243.1	285.2	331.1	348.4	340.1	343.7	332.9	289.6	260.6	241.0	234.3	214.9	229.8	226.7	229.3	221.3	240.7	230.5	231.6	227.8	230.5	247.9	231.2	234.8	212.0	209.7	193.6	179.1	155.8	152.9	135.3	128.3	120.7	103.7	102.4	92.69	89.49	96.65	94.09	69.86
525.0	105.5	163.5	134.7	143.5	205.7	193.7	250.7	247.8	223.0	257.5	255.6	268.8	287.9	324.0	326.4	321.3	322.9	302.7	268.4	237.1	221.5	217.7	206.0	204.1	199.0	209.2	206.6	200.4	215.7	212.7	210.3	202.9	220.6	206.5	216.3	189.6	195.7	175.0	168.5	143.7	138.7	130.4	121.4	112.0	103.7	90.34	91.42	78.96	81.36	92.11	74.72
530.0	149.2	175.7	129.1	139.6	159.5	185.4	179.2	215.7	207.6	217.5	216.9	224.1	243.9	273.5	290.8	310.4	289.0	277.7	257.8	217.2	198.9	198.0	196.3	195.0	182.2	186.2	168.5	185.3	195.9	181.7	176.7	179.0	185.6	179.5	184.5	173.1	167.4	159.5	141.3	132.8	122.9	111.9	106.6	98.12	95.06	81.25	85.44	78.90	71.70	76.34	74.71
535.0	145.5	154.7	130.5	109.2	155.4	158.2	184.9	174.4	165.7	169.6	178.0	207.6	218.3	243.7	289.1	260.9	267.1	232.2	223.0	202.7	179.7	175.3	166.9	174.4	171.0	162.7	165.3	164.3	157.4	155.6	156.7	168.9	155.1	168.4	167.8	148.4	145.9	134.8	122.1	118.9	110.9	102.9	96.84	88.19	90.14	79.93	82.77	67.25	62.77	63.91	68.20
540.0	71.99	126.3	134.1	107.3	106.4	176.0	151.5	174.3	160.2	170.7	228.5	205.1	213.6	224.4	347.1	295.0	250.9	225.6	191.7	180.8	162.2	166.1	151.5	153.6	146.9	146.1	151.7	155.5	152.3	141.1	140.8	137.8	147.6	142.9	140.6	142.6	128.0	125.9	116.7	109.4	103.3	100.4	91.10	86.07	74.73	76.93	70.77	63.08	61.45	58.42	55.86
545.0	123.9	110.5	132.1	112.2	154.1	181.1	187.9	121.2	183.1	131.7	159.7	171.2	165.6	184.3	393.6	557.1	246.5	188.1	182.1	164.1	162.3	144.2	140.1	137.3	135.6	129.0	129.8	125.9	129.8	120.4	130.3	132.3	123.8	126.6	132.7	125.6	111.9	107.2	106.2	98.48	89.93	86.34	80.86	76.57	70.25	73.07	62.71	60.40	56.00	52.51	49.49
550.0	145.1	82.82	87.95	105.6	114.4	142.3	117.4	103.7	134.0	129.5	133.2	153.1	160.0	185.5	240.4	 1117	450.7	177.9	154.5	135.0	144.3	128.5	141.2	131.7	126.3	123.0	124.6	120.8	117.6	123.5	110.3	116.0	123.2	123.5	122.3	108.6	102.1	97.75	95.57	87.57	81.02	74.24	70.46	73.35	66.95	64.84	59.27	54.25	54.15	48.42	46.54
