Sample:	'SLABO1-5-5-320
File name:	1P7.FD3
Run Date:	16:24:09, 08/17/2022
Operator:	Administrator
Comment:	'

Instrument
Model:	F-7000 FL Spectrophotometer
Serial Number:	2354-007
ROM Version:	5J14000 06

Instrument Parameters
Measurement type:	3-D Scan
Data mode:	Fluorescence
EX  Start WL:	200.0 nm
EX  End WL:	450.0 nm
EX Sampling Interval:	5.0 nm
EM  Start WL:	280.0 nm
EM  End WL:	550.0 nm
EM Sampling Interval:	5.0 nm
Scan speed:	12000 nm/min
EX Slit:	5.0 nm
EM Slit:	5.0 nm
PMT Voltage:	700 V
Response:	Auto 
Corrected spectra:	Off
Shutter control:	On
Contour interval:	25.000

Peak integration
Integration method:	Rectangular
Sensitivity:	1
Threshold:	1.000

Peaks
No.	ApexEX/EM(nm)	Height(Data)
1	205.0/320.0	557.9
2	205.0/345.0	505.3
3	205.0/385.0	457.2
4	205.0/455.0	403.3
5	205.0/500.0	274.1
6	205.0/520.0	167.7
7	210.0/370.0	488.0
8	210.0/390.0	481.6
9	210.0/485.0	263.4
10	210.0/510.0	191.5
11	215.0/415.0	628.7
12	215.0/535.0	148.5
13	220.0/310.0	474.1
14	220.0/525.0	192.5
15	235.0/350.0	 1189
16	235.0/360.0	 1170
17	240.0/370.0	 1282
18	255.0/400.0	 1692
19	270.0/435.0	 1923
20	275.0/305.0	976.5
21	275.0/370.0	 1712
22	275.0/420.0	 1911
23	275.0/445.0	 1821
24	280.0/310.0	 1215
25	280.0/405.0	 1840
26	280.0/440.0	 1821
27	285.0/315.0	 1261
28	285.0/375.0	 1754
29	285.0/410.0	 1851
30	290.0/385.0	 1770
31	295.0/400.0	 1767
32	320.0/415.0	 1960
33	325.0/410.0	 1980
34	330.0/420.0	 2016
35	360.0/305.0	13.31
36	405.0/315.0	7.438
37	405.0/345.0	10.58
38	425.0/305.0	5.396
39	425.0/320.0	6.155
40	435.0/345.0	6.232
41	445.0/350.0	7.199

Data Points
	200.0	205.0	210.0	215.0	220.0	225.0	230.0	235.0	240.0	245.0	250.0	255.0	260.0	265.0	270.0	275.0	280.0	285.0	290.0	295.0	300.0	305.0	310.0	315.0	320.0	325.0	330.0	335.0	340.0	345.0	350.0	355.0	360.0	365.0	370.0	375.0	380.0	385.0	390.0	395.0	400.0	405.0	410.0	415.0	420.0	425.0	430.0	435.0	440.0	445.0	450.0
280.0	18.42	72.00	18.30	46.25	20.74	15.40	15.64	14.04	11.31	20.13	36.44	73.91	38.10	24.38	11.63	 1432	 8142	 3012	94.19	14.00	16.94	15.36	13.73	8.644	11.05	10.86	9.503	9.019	6.197	9.171	5.371	7.010	6.534	4.655	5.512	5.697	3.798	5.162	3.592	3.487	2.759	2.470	2.479	2.516	1.621	1.890	1.746	1.363	1.853	1.487	1.221
285.0	103.9	24.73	91.02	55.89	78.49	65.75	64.15	37.15	37.36	68.60	102.0	102.1	127.6	94.57	58.72	148.9	 3568	9999.9	9999.9	576.4	22.63	23.07	21.81	18.46	11.67	11.95	9.730	9.532	9.084	6.478	6.927	6.863	5.693	5.653	4.904	6.510	4.654	4.971	4.207	3.414	3.669	3.666	2.250	2.998	3.074	1.828	2.364	2.118	1.442	2.091	1.716
290.0	225.5	190.8	99.81	187.7	149.4	213.8	172.2	97.47	72.76	132.0	127.6	128.8	168.7	263.1	184.1	164.3	352.4	 8067	9999.9	9999.9	794.4	33.99	30.15	21.36	18.27	14.56	10.11	10.59	10.10	8.864	7.220	6.922	6.498	4.859	5.706	6.249	3.638	5.229	3.142	5.003	3.250	4.871	2.251	3.412	2.882	1.868	1.724	1.996	1.962	2.000	2.513
295.0	248.4	301.0	189.3	261.4	290.9	359.8	237.7	167.7	125.4	159.9	178.3	214.9	212.3	330.1	474.7	314.5	290.4	710.4	9999.9	9999.9	9999.9	 1029	38.88	32.35	29.83	20.08	14.40	12.38	10.18	8.975	6.586	8.475	7.449	7.183	6.859	7.227	6.851	4.390	5.057	5.261	3.836	3.918	3.672	2.968	3.277	3.178	3.135	2.334	2.668	2.172	2.865
300.0	361.9	300.9	299.3	316.5	404.7	374.3	304.1	261.7	178.7	222.5	263.0	270.8	252.9	350.6	566.0	668.3	479.8	373.4	842.1	9999.9	9999.9	9999.9	 1125	47.11	42.65	34.45	22.72	15.38	14.09	12.38	13.27	8.404	9.864	8.791	8.853	6.956	6.849	5.718	6.020	5.418	4.322	4.209	3.350	4.231	4.063	3.505	3.713	3.634	3.117	3.163	3.459
305.0	373.9	347.6	343.1	331.8	426.8	404.2	464.5	312.5	240.6	253.5	274.5	374.5	351.9	437.8	582.5	976.5	859.5	521.9	348.7	806.6	9999.9	9999.9	9999.9	 1251	58.70	40.74	33.25	22.56	18.65	15.45	10.93	11.65	13.31	7.992	9.789	7.621	7.652	7.044	6.162	5.432	5.345	5.264	3.754	3.737	3.535	5.396	3.422	3.002	2.417	4.573	3.152
310.0	458.8	470.2	356.2	371.3	474.1	425.2	489.4	400.5	311.4	271.8	357.3	407.3	447.2	522.7	648.9	851.4	 1215	827.7	480.6	307.7	798.2	9999.9	9999.9	9999.9	 1344	60.90	45.84	37.63	26.40	21.53	15.45	13.33	10.87	11.21	10.39	5.149	9.864	7.336	6.421	6.603	4.807	4.572	4.645	5.194	3.697	4.102	3.731	3.544	3.580	3.984	3.147
315.0	381.0	430.4	404.0	321.0	403.8	526.4	534.3	468.0	391.5	354.5	429.1	462.8	537.8	633.8	733.4	887.4	 1066	 1261	713.0	359.0	252.1	806.0	9999.9	9999.9	9999.9	 1183	67.10	55.18	38.67	32.03	21.95	17.53	14.56	10.62	11.72	11.83	9.216	8.218	6.131	5.852	5.729	7.438	4.296	4.045	5.400	4.087	4.753	5.010	3.944	4.648	4.120
320.0	382.4	557.9	393.0	377.8	352.6	579.8	599.0	489.8	423.7	460.1	516.0	557.3	586.4	655.8	864.2	 1048	 1135	 1196	 1170	564.7	306.9	266.1	799.1	9999.9	9999.9	9999.9	 1166	76.64	57.81	37.74	29.20	24.32	17.82	14.17	13.36	12.81	9.869	9.202	6.897	8.329	6.782	6.255	4.818	5.551	4.623	6.155	3.489	4.227	3.742	4.403	5.201
325.0	418.8	415.6	367.3	385.2	479.8	656.4	710.1	656.7	544.1	465.5	503.6	628.6	683.7	790.8	970.1	 1162	 1236	 1139	 1151	964.7	454.4	302.9	243.3	800.8	9999.9	9999.9	9999.9	 1237	85.00	51.52	45.39	30.85	22.19	17.42	16.23	12.85	12.18	9.318	9.149	7.782	6.731	5.436	5.025	6.232	5.654	5.675	4.670	4.136	4.028	4.718	6.006
330.0	336.5	398.4	405.0	493.7	467.8	721.6	961.8	890.8	633.2	623.0	580.4	668.8	725.9	831.5	 1049	 1268	 1346	 1296	 1102	 1094	781.0	433.9	295.8	251.0	787.3	9999.9	9999.9	9999.9	 1249	89.58	61.36	48.23	36.39	23.79	17.80	14.01	12.77	9.769	9.356	7.605	6.382	7.555	5.105	5.581	5.876	4.069	4.510	4.631	4.977	4.257	5.484
335.0	345.2	394.3	330.5	459.8	400.6	690.8	920.3	972.6	829.0	663.8	656.7	684.6	750.2	918.3	 1129	 1308	 1450	 1375	 1146	942.6	 1004	668.9	381.4	275.1	262.0	809.8	9999.9	9999.9	9999.9	 1267	85.61	67.72	45.82	36.26	26.89	20.72	14.42	11.76	11.80	7.770	6.847	6.676	5.753	6.041	5.117	4.502	5.009	5.761	4.599	6.047	5.395
340.0	310.3	424.5	342.4	452.9	554.9	742.6	 1036	 1099	837.8	698.6	667.0	702.3	835.1	858.0	 1158	 1398	 1495	 1481	 1310	 1060	887.2	911.5	585.5	342.1	276.6	264.6	818.3	9999.9	9999.9	9999.9	 1454	92.32	66.55	48.26	38.47	26.95	20.11	13.79	12.22	8.562	8.196	9.216	7.226	6.112	6.302	6.834	4.222	5.256	5.753	5.388	5.319
345.0	313.8	505.3	272.1	490.7	539.8	829.8	 1003	 1049	 1016	774.8	727.6	790.9	784.8	997.6	 1238	 1428	 1504	 1523	 1401	 1131	891.7	812.5	854.7	550.4	385.4	291.7	288.7	832.8	9999.9	9999.9	9999.9	 1572	92.82	65.00	50.27	38.15	25.40	18.22	14.01	9.170	8.225	10.58	7.392	6.788	6.352	4.308	5.573	6.232	5.333	5.013	6.310
350.0	297.9	349.0	336.0	541.2	450.6	827.1	 1025	 1189	 1094	849.6	828.3	853.0	956.1	 1033	 1303	 1465	 1558	 1550	 1404	 1185	 1018	842.8	855.6	871.2	542.7	409.5	350.4	320.6	854.6	9999.9	9999.9	9999.9	 1594	100.8	69.80	55.19	35.07	24.47	15.26	13.12	10.52	9.372	7.249	6.269	5.683	5.122	5.010	4.678	5.151	7.199	6.096
355.0	340.4	306.0	309.2	353.8	517.4	852.7	930.1	 1113	 1016	 1028	948.6	 1014	 1109	 1175	 1377	 1506	 1570	 1579	 1496	 1333	 1140	984.4	878.2	966.7	850.4	567.2	482.7	388.2	334.5	845.6	9999.9	9999.9	9999.9	 1661	103.5	77.88	50.12	33.59	23.23	15.28	11.97	10.11	7.843	6.806	5.630	6.620	6.514	5.181	5.853	5.511	5.070
360.0	309.2	359.2	348.8	420.0	570.2	655.2	998.5	 1170	 1083	 1066	 1039	 1067	 1142	 1296	 1395	 1549	 1627	 1640	 1584	 1399	 1212	 1111	975.7	958.9	 1043	890.2	623.4	509.1	421.3	349.1	861.2	9999.9	9999.9	9999.9	 1598	94.62	66.72	43.51	35.49	19.29	14.34	14.52	9.299	8.942	7.748	6.760	7.084	5.703	5.517	6.820	5.842
365.0	340.7	301.0	421.4	369.4	516.5	708.6	984.3	 1109	 1167	 1147	 1128	 1148	 1233	 1348	 1542	 1601	 1606	 1669	 1641	 1493	 1307	 1228	 1150	 1055	 1049	 1132	909.9	681.1	536.9	427.1	346.3	844.8	9999.9	9999.9	9999.9	 1751	95.58	61.34	44.49	29.48	19.47	16.59	11.67	8.428	7.253	8.424	5.439	6.187	5.885	5.247	6.269
370.0	343.3	388.7	488.0	387.9	471.9	745.6	995.8	 1135	 1282	 1202	 1246	 1288	 1336	 1456	 1557	 1712	 1679	 1716	 1636	 1572	 1425	 1370	 1265	 1201	 1165	 1163	 1213	915.3	701.7	540.4	422.3	328.6	846.0	9999.9	9999.9	9999.9	 1693	88.55	66.73	44.10	29.92	20.85	15.07	12.24	8.023	9.010	6.104	6.075	6.656	5.613	4.826
375.0	319.9	405.6	397.7	369.3	587.6	773.8	923.6	 1170	 1250	 1249	 1250	 1331	 1464	 1531	 1622	 1644	 1679	 1754	 1723	 1602	 1540	 1474	 1415	 1356	 1298	 1275	 1273	 1227	911.5	714.8	542.8	398.8	342.9	846.6	9999.9	9999.9	9999.9	 1787	87.29	57.47	43.01	29.30	19.09	15.53	11.68	9.760	6.437	6.269	6.216	6.097	6.499
380.0	283.8	448.3	392.3	494.4	527.5	710.4	901.1	 1132	 1243	 1209	 1274	 1381	 1509	 1551	 1606	 1650	 1747	 1735	 1708	 1613	 1540	 1570	 1500	 1476	 1430	 1415	 1313	 1355	 1172	886.9	699.2	515.6	391.9	332.2	842.8	9999.9	9999.9	9999.9	 1582	79.65	55.35	38.40	27.44	18.88	13.62	10.53	7.938	7.786	7.587	6.427	6.249
385.0	269.9	457.2	352.4	364.6	578.1	788.4	915.7	 1147	 1249	 1274	 1402	 1435	 1498	 1579	 1739	 1722	 1722	 1763	 1770	 1642	 1630	 1659	 1599	 1594	 1547	 1521	 1471	 1361	 1399	 1151	854.2	670.7	520.3	398.7	334.4	833.8	9999.9	9999.9	9999.9	 1633	76.01	51.57	35.01	24.97	17.71	12.22	10.10	8.288	6.497	7.400	6.435
390.0	384.8	411.9	481.6	437.5	544.9	709.3	843.6	 1025	 1279	 1356	 1483	 1483	 1533	 1613	 1723	 1771	 1793	 1778	 1725	 1726	 1671	 1672	 1667	 1678	 1709	 1683	 1573	 1497	 1413	 1348	 1094	847.4	678.1	524.5	404.7	325.4	836.2	9999.9	9999.9	9999.9	 1537	74.74	50.25	32.26	21.96	17.85	13.12	10.65	8.138	9.078	5.562
395.0	312.2	370.4	402.2	501.2	553.3	745.4	945.4	 1063	 1261	 1412	 1504	 1552	 1620	 1677	 1745	 1741	 1806	 1772	 1771	 1765	 1680	 1740	 1763	 1779	 1791	 1771	 1741	 1618	 1539	 1428	 1349	 1024	840.7	673.9	540.1	409.2	336.0	836.1	9999.9	9999.9	9999.9	 1567	64.55	44.70	30.42	21.84	16.59	11.13	10.64	9.034	7.226
400.0	275.3	312.8	436.3	582.0	544.3	731.8	965.7	 1074	 1260	 1456	 1526	 1692	 1670	 1676	 1754	 1751	 1819	 1816	 1748	 1767	 1757	 1791	 1808	 1875	 1865	 1861	 1842	 1761	 1619	 1527	 1459	 1318	 1028	845.7	686.8	526.7	392.1	317.6	834.7	9999.9	9999.9	9999.9	 1355	64.64	41.57	27.11	21.15	16.42	10.24	9.096	9.249
405.0	233.8	394.7	371.8	548.6	597.9	716.2	927.6	 1170	 1233	 1454	 1644	 1646	 1731	 1717	 1733	 1766	 1840	 1825	 1779	 1748	 1753	 1815	 1818	 1880	 1899	 1948	 1898	 1878	 1761	 1642	 1518	 1461	 1288	 1001	831.2	676.7	500.0	356.8	309.8	806.3	9999.9	9999.9	9999.9	 1192	57.88	41.56	26.81	18.80	14.59	13.13	10.67
410.0	330.6	506.5	441.6	497.9	586.3	708.4	933.5	 1166	 1258	 1482	 1601	 1589	 1721	 1737	 1832	 1852	 1808	 1851	 1772	 1768	 1762	 1756	 1862	 1874	 1917	 1980	 1949	 1936	 1867	 1748	 1610	 1513	 1474	 1247	995.5	786.8	599.1	461.8	344.2	293.7	798.1	9999.9	9999.9	9999.9	 1118	62.74	36.04	23.67	17.59	14.29	10.01
415.0	288.2	334.1	483.1	628.7	530.8	674.2	945.5	 1256	 1214	 1488	 1616	 1740	 1786	 1828	 1888	 1872	 1851	 1836	 1820	 1747	 1736	 1770	 1808	 1884	 1960	 1941	 1967	 1964	 1879	 1812	 1709	 1580	 1507	 1439	 1177	917.8	740.1	561.0	417.6	306.1	267.8	782.3	 9585	9999.9	9999.9	 1188	50.36	34.60	23.01	18.78	15.60
420.0	278.5	414.0	361.4	474.5	602.0	777.6	937.6	 1136	 1286	 1419	 1559	 1674	 1759	 1898	 1905	 1911	 1855	 1796	 1729	 1728	 1713	 1747	 1776	 1861	 1902	 1948	 2016	 1983	 1964	 1877	 1781	 1651	 1538	 1465	 1353	 1058	818.3	656.7	482.7	368.3	272.3	236.6	738.0	 9225	9999.9	9999.9	974.7	50.88	34.02	23.89	20.49
425.0	306.2	457.7	308.0	368.5	560.1	737.9	902.2	 1104	 1294	 1420	 1665	 1622	 1781	 1880	 1871	 1876	 1793	 1757	 1742	 1679	 1695	 1695	 1766	 1838	 1891	 1933	 1991	 1976	 1946	 1857	 1829	 1740	 1621	 1496	 1423	 1220	929.0	748.4	548.9	434.1	332.3	241.8	217.1	707.3	 8696	9999.9	9999.9	845.8	49.33	32.82	21.57
430.0	316.7	336.0	385.3	376.5	545.9	681.6	825.9	 1086	 1187	 1358	 1546	 1669	 1747	 1840	 1895	 1851	 1817	 1822	 1724	 1698	 1683	 1675	 1721	 1755	 1795	 1882	 1925	 1914	 1912	 1883	 1823	 1768	 1685	 1535	 1426	 1294	 1066	830.7	638.1	507.7	395.2	290.7	224.6	202.7	658.9	 8338	9999.9	9999.9	740.9	47.38	30.08
435.0	230.4	423.4	322.0	423.2	529.0	779.7	875.5	 1104	 1207	 1395	 1526	 1702	 1728	 1758	 1923	 1851	 1781	 1718	 1658	 1606	 1612	 1628	 1632	 1747	 1786	 1838	 1874	 1900	 1887	 1880	 1812	 1766	 1713	 1605	 1464	 1320	 1156	915.6	720.1	562.7	437.1	345.8	265.2	200.5	181.3	621.3	 7847	9999.9	9999.9	762.2	42.42
440.0	348.7	345.8	300.2	402.1	495.2	756.9	875.1	951.5	 1204	 1289	 1474	 1654	 1709	 1759	 1801	 1786	 1821	 1740	 1659	 1579	 1550	 1575	 1634	 1696	 1706	 1738	 1786	 1808	 1870	 1837	 1778	 1739	 1677	 1609	 1509	 1314	 1178	 1025	799.6	623.4	498.6	394.2	309.0	237.8	180.8	167.5	591.0	 7821	9999.9	9999.9	658.7
445.0	231.6	324.0	408.1	425.0	517.8	629.7	777.1	 1012	 1119	 1253	 1362	 1619	 1659	 1745	 1803	 1821	 1788	 1685	 1634	 1518	 1496	 1516	 1525	 1606	 1644	 1666	 1731	 1756	 1780	 1778	 1739	 1695	 1685	 1627	 1495	 1338	 1148	 1041	882.2	694.1	535.6	446.3	348.1	267.7	205.3	158.8	165.6	593.2	 7868	9999.9	9999.9
450.0	224.9	366.9	376.8	362.5	395.1	534.1	783.5	957.0	 1049	 1235	 1378	 1582	 1681	 1705	 1747	 1801	 1756	 1627	 1572	 1442	 1460	 1440	 1507	 1489	 1532	 1599	 1627	 1697	 1699	 1702	 1664	 1653	 1617	 1571	 1468	 1337	 1174	 1014	894.1	762.5	584.0	485.5	389.5	316.9	248.0	198.7	154.1	152.1	582.5	 7432	9999.9
455.0	251.2	403.3	379.3	383.4	410.5	440.8	748.1	926.8	 1085	 1129	 1327	 1472	 1593	 1635	 1619	 1753	 1680	 1606	 1475	 1378	 1357	 1363	 1366	 1420	 1447	 1473	 1535	 1591	 1620	 1594	 1604	 1569	 1547	 1533	 1418	 1285	 1163	985.9	879.5	778.3	637.2	504.2	414.2	341.0	275.7	219.4	176.8	138.2	137.7	550.9	 7351
460.0	308.2	318.8	312.5	311.4	467.9	571.7	736.8	832.8	959.0	 1115	 1166	 1386	 1467	 1590	 1654	 1635	 1563	 1515	 1381	 1353	 1304	 1300	 1325	 1313	 1363	 1353	 1455	 1478	 1475	 1471	 1509	 1501	 1449	 1448	 1386	 1274	 1114	972.0	876.9	776.4	676.9	550.5	457.7	385.6	313.5	248.4	203.5	159.3	124.5	122.6	535.3
465.0	340.8	291.3	359.0	355.9	481.1	484.7	627.4	742.2	871.4	 1062	 1123	 1170	 1435	 1535	 1560	 1554	 1427	 1415	 1326	 1278	 1204	 1173	 1242	 1251	 1254	 1269	 1344	 1392	 1380	 1418	 1439	 1386	 1388	 1393	 1315	 1212	 1088	963.2	833.7	731.5	677.5	591.5	474.3	390.9	326.5	281.2	218.6	182.0	151.0	116.5	114.2
470.0	289.0	294.8	307.5	330.1	360.3	442.7	589.4	830.5	781.6	961.7	 1062	 1269	 1267	 1403	 1429	 1334	 1389	 1324	 1226	 1201	 1107	 1146	 1135	 1125	 1177	 1181	 1218	 1255	 1271	 1286	 1310	 1294	 1296	 1297	 1219	 1176	 1031	933.5	816.1	717.5	639.0	589.6	497.8	414.4	344.9	285.8	239.5	196.6	166.8	128.6	101.8
475.0	189.4	277.2	207.6	274.4	378.3	395.3	458.2	653.3	758.6	877.5	 1057	 1092	 1233	 1352	 1307	 1312	 1309	 1248	 1133	 1068	 1036	 1036	 1031	 1033	 1066	 1072	 1106	 1148	 1145	 1181	 1201	 1197	 1186	 1190	 1163	 1066	973.0	862.1	768.2	697.4	619.3	562.5	523.1	434.3	356.4	294.9	249.1	205.2	173.6	137.9	109.8
480.0	207.5	267.5	161.2	252.1	299.3	363.9	519.9	574.4	688.3	863.4	942.1	 1051	 1096	 1231	 1312	 1221	 1223	 1176	 1072	 1002	955.2	947.3	946.6	945.3	957.6	994.4	 1015	 1046	 1067	 1077	 1093	 1097	 1088	 1099	 1086	 1012	923.4	820.1	755.4	658.6	602.5	521.0	487.8	447.3	368.3	303.9	263.0	228.0	190.2	156.3	130.6
485.0	203.9	220.4	263.4	243.8	253.3	360.2	395.1	602.3	627.8	778.3	908.9	 1010	 1062	 1153	 1139	 1145	 1149	 1090	 1027	968.1	938.6	884.4	887.7	892.4	890.3	919.9	934.0	978.9	974.3	998.4	 1021	 1026	 1036	 1037	 1002	942.8	877.3	800.2	726.6	648.1	584.6	533.3	462.1	442.7	392.3	317.4	277.7	240.0	207.5	170.9	147.0
490.0	212.0	156.6	206.4	207.3	311.0	285.3	371.8	584.1	641.9	707.7	784.9	863.0	 1006	 1092	 1100	 1151	 1126	 1047	980.6	892.8	875.8	836.9	821.6	842.7	856.6	856.9	876.8	904.2	911.8	929.6	944.8	956.4	946.0	962.5	934.2	908.7	832.9	754.3	684.9	618.7	567.6	509.2	447.3	417.5	390.5	342.9	274.6	245.3	206.0	175.4	154.1
495.0	140.3	122.9	177.8	200.8	229.7	342.5	418.0	494.3	565.1	707.4	760.8	875.1	956.9	 1057	 1074	 1046	 1080	946.7	916.0	827.5	802.2	788.9	795.4	777.2	812.7	791.2	822.5	822.8	825.5	847.3	861.6	871.0	878.5	879.0	890.4	857.0	770.4	704.9	647.8	593.5	551.0	498.9	446.0	406.0	367.8	356.4	284.5	244.3	214.9	183.8	160.1
500.0	187.8	274.1	247.2	182.4	210.7	322.2	378.6	507.9	574.3	649.4	675.4	777.1	857.2	895.1	 1009	999.6	941.3	905.0	815.2	782.0	719.2	712.5	734.6	700.1	711.7	735.2	740.6	740.0	776.6	784.6	787.8	800.9	809.9	815.7	807.9	770.0	733.8	670.5	612.6	561.8	526.2	450.9	434.9	406.8	360.3	327.1	312.4	258.0	215.3	192.0	163.2
505.0	79.70	178.8	133.7	158.8	179.2	335.6	381.6	421.3	466.3	532.4	638.3	733.9	771.0	882.5	892.9	933.2	904.0	874.5	790.3	737.8	689.3	691.6	650.1	663.9	662.8	656.0	675.0	682.6	702.2	731.1	740.0	708.7	739.1	743.4	735.6	713.9	672.1	619.9	561.1	513.7	482.6	446.1	410.8	371.1	332.4	314.3	297.9	260.6	214.0	189.8	166.4
510.0	130.7	163.2	191.5	190.3	156.9	255.7	299.8	370.4	427.6	516.2	628.3	643.6	736.8	762.8	866.6	829.0	871.7	768.2	728.3	654.7	619.6	632.6	605.1	606.9	581.2	600.8	588.1	623.6	603.1	640.9	662.1	637.8	672.3	682.4	662.2	639.6	596.8	566.6	522.1	485.7	460.3	421.5	371.9	352.9	321.6	293.8	272.3	257.9	222.9	188.4	160.0
515.0	167.3	112.4	146.6	142.3	176.4	225.1	269.8	357.3	425.8	493.0	521.8	588.2	679.0	720.1	756.7	772.3	768.7	690.5	637.6	596.8	567.1	577.2	564.2	538.8	542.6	542.8	552.4	548.7	560.8	563.8	593.0	593.6	593.0	603.5	593.4	585.8	561.7	511.8	465.6	457.5	429.0	376.5	366.0	333.6	297.3	284.9	253.2	237.3	230.3	196.5	170.4
520.0	119.3	167.7	120.4	99.61	156.9	161.0	247.7	283.4	336.9	413.7	482.2	556.5	594.3	658.6	676.3	694.2	638.4	652.0	611.6	572.1	521.7	493.3	490.7	496.4	483.8	477.6	511.8	503.5	502.1	521.1	519.0	539.2	548.2	541.3	556.8	540.4	500.9	476.6	440.9	403.2	384.8	361.5	330.9	312.1	291.6	271.4	230.4	221.5	217.4	203.0	165.7
525.0	132.8	99.32	130.9	162.2	192.5	164.0	236.9	294.1	349.0	392.3	460.1	495.4	556.1	614.9	630.0	639.6	638.4	544.0	538.7	486.0	491.6	459.5	452.8	451.7	431.1	434.4	439.0	448.1	458.5	456.2	455.4	487.4	486.1	514.9	502.8	467.0	458.8	424.1	402.6	373.8	350.0	325.0	303.3	288.9	260.3	242.9	230.5	207.4	194.1	180.8	166.4
530.0	157.5	92.74	97.88	100.8	135.7	158.5	220.8	251.0	294.4	308.0	410.9	432.9	503.4	512.1	533.8	561.6	552.8	504.4	471.4	424.8	418.3	414.1	387.7	415.1	400.7	393.4	409.6	394.1	403.8	421.8	416.6	423.3	428.8	441.6	436.1	435.3	414.2	382.3	365.5	342.5	313.8	293.8	283.3	265.8	244.1	229.5	200.1	193.6	179.3	173.4	164.1
535.0	48.37	106.0	111.0	148.5	120.0	205.2	218.8	196.7	284.8	287.1	360.4	410.6	457.1	454.9	492.1	492.2	469.9	489.6	419.7	390.2	393.6	387.9	356.2	372.7	359.1	343.6	364.2	365.5	370.8	363.1	370.9	394.1	376.0	384.5	395.2	372.7	359.9	339.2	322.3	297.5	285.7	277.7	260.4	230.7	223.5	219.1	189.6	188.7	166.5	151.7	151.9
540.0	129.2	96.70	107.6	92.45	103.1	151.5	170.9	216.7	268.2	296.6	347.5	359.2	391.0	412.7	510.6	469.5	449.9	431.9	367.1	373.3	337.0	332.3	334.0	316.5	299.4	299.1	309.8	325.1	322.4	317.8	335.2	343.2	335.0	345.5	352.1	324.9	332.2	314.8	290.6	276.8	258.6	242.5	232.0	217.8	204.3	190.8	176.9	165.6	153.3	142.3	129.4
545.0	100.0	69.14	97.05	117.8	142.7	133.8	180.9	219.7	220.1	249.4	300.9	313.8	328.0	376.2	431.8	556.0	392.0	361.7	340.9	318.6	281.1	301.2	292.6	282.3	288.7	272.4	266.1	289.5	290.4	284.4	309.0	297.3	298.9	311.9	313.3	308.4	279.1	279.4	266.6	239.1	228.6	225.0	196.2	198.2	185.8	183.5	159.3	156.4	138.7	135.5	119.6
550.0	62.07	57.27	108.8	83.59	109.6	112.1	119.8	164.8	212.7	259.3	260.4	276.9	313.4	366.1	402.9	684.3	454.6	349.7	324.8	298.4	270.4	277.9	268.9	254.3	237.2	258.1	261.2	271.9	264.9	266.4	267.0	281.4	266.2	286.3	282.5	268.6	257.4	249.3	234.2	211.9	214.6	211.3	191.6	182.8	178.2	159.9	158.5	141.6	132.2	124.2	112.4
