Sample:	'SLABO1-5-5-320
File name:	2H10.FD3
Run Date:	17:05:05, 08/17/2022
Operator:	Administrator
Comment:	'

Instrument
Model:	F-7000 FL Spectrophotometer
Serial Number:	2354-007
ROM Version:	5J14000 06

Instrument Parameters
Measurement type:	3-D Scan
Data mode:	Fluorescence
EX  Start WL:	200.0 nm
EX  End WL:	450.0 nm
EX Sampling Interval:	5.0 nm
EM  Start WL:	280.0 nm
EM  End WL:	550.0 nm
EM Sampling Interval:	5.0 nm
Scan speed:	12000 nm/min
EX Slit:	5.0 nm
EM Slit:	5.0 nm
PMT Voltage:	700 V
Response:	Auto 
Corrected spectra:	Off
Shutter control:	On
Contour interval:	25.000

Peak integration
Integration method:	Rectangular
Sensitivity:	1
Threshold:	1.000

Peaks
No.	ApexEX/EM(nm)	Height(Data)
1	205.0/510.0	259.9
2	210.0/325.0	 1276
3	210.0/470.0	439.8
4	210.0/500.0	234.0
5	215.0/525.0	224.3
6	220.0/535.0	210.4
7	225.0/420.0	 1025
8	225.0/510.0	344.1
9	225.0/545.0	177.2
10	230.0/335.0	 2419
11	230.0/405.0	 1203
12	230.0/440.0	977.0
13	230.0/455.0	836.8
14	230.0/490.0	489.2
15	230.0/525.0	298.0
16	235.0/425.0	 1042
17	235.0/435.0	987.6
18	235.0/495.0	499.7
19	240.0/455.0	878.2
20	245.0/395.0	980.8
21	245.0/410.0	 1047
22	245.0/420.0	 1033
23	250.0/450.0	951.1
24	250.0/460.0	883.2
25	250.0/545.0	215.9
26	270.0/445.0	 1148
27	275.0/395.0	 1298
28	275.0/420.0	 1241
29	275.0/440.0	 1193
30	280.0/345.0	 2243
31	280.0/430.0	 1184
32	310.0/345.0	686.0
33	315.0/350.0	658.7
34	315.0/415.0	922.7
35	320.0/360.0	693.2
36	320.0/410.0	905.7
37	325.0/365.0	754.4
38	325.0/420.0	918.7
39	330.0/370.0	741.6
40	335.0/380.0	703.5
41	335.0/435.0	875.7
42	335.0/445.0	842.8
43	340.0/385.0	706.4
44	345.0/390.0	723.7
45	350.0/395.0	685.1
46	355.0/405.0	713.6
47	360.0/410.0	723.5
48	365.0/415.0	690.9
49	370.0/295.0	7.366
50	370.0/425.0	672.7
51	380.0/290.0	5.640
52	390.0/295.0	5.120
53	395.0/330.0	7.300
54	400.0/305.0	5.769
55	405.0/335.0	7.102
56	410.0/330.0	7.597
57	410.0/340.0	7.172
58	415.0/345.0	8.022
59	415.0/485.0	229.6
60	420.0/350.0	6.948
61	420.0/490.0	205.6
62	430.0/305.0	5.558
63	435.0/315.0	6.436
64	435.0/385.0	9.666
65	435.0/510.0	139.6
66	445.0/360.0	9.646

Data Points
	200.0	205.0	210.0	215.0	220.0	225.0	230.0	235.0	240.0	245.0	250.0	255.0	260.0	265.0	270.0	275.0	280.0	285.0	290.0	295.0	300.0	305.0	310.0	315.0	320.0	325.0	330.0	335.0	340.0	345.0	350.0	355.0	360.0	365.0	370.0	375.0	380.0	385.0	390.0	395.0	400.0	405.0	410.0	415.0	420.0	425.0	430.0	435.0	440.0	445.0	450.0
280.0	80.00	73.31	108.1	40.18	63.27	56.15	29.10	34.35	18.76	44.18	76.07	104.6	53.21	28.58	17.40	953.4	 5702	 2335	67.93	14.05	13.19	15.59	9.085	7.529	7.805	4.451	5.840	6.378	5.131	5.991	3.626	4.053	4.447	2.493	2.428	4.163	3.098	3.216	3.024	3.758	2.769	2.215	1.440	1.491	1.876	2.037	1.409	1.111	1.270	1.296	1.653
285.0	292.0	256.5	152.0	215.2	169.5	187.5	98.58	74.23	71.26	135.0	193.8	189.5	215.3	160.0	74.33	131.0	 2371	9999.9	 8665	466.0	16.35	20.56	8.837	11.69	8.892	8.071	5.991	5.731	4.494	4.794	4.777	4.930	4.813	4.443	4.255	4.458	2.423	5.129	2.885	2.546	3.372	1.894	2.560	2.893	1.811	1.391	1.268	1.932	3.417	1.706	1.564
290.0	509.4	529.5	431.9	318.5	473.1	354.3	305.0	180.4	143.4	165.0	254.6	235.7	282.0	392.2	225.4	186.5	284.9	 5286	9999.9	9999.9	631.6	32.60	19.48	16.34	12.04	9.863	9.013	4.965	5.923	6.612	5.939	4.207	5.417	4.509	5.517	4.550	5.640	3.953	2.439	3.169	2.828	3.232	3.133	2.179	2.334	1.946	2.942	2.571	3.494	2.302	1.850
295.0	659.6	803.6	666.5	562.6	708.6	612.3	468.8	264.8	156.6	264.6	265.1	317.4	297.7	434.1	624.6	385.3	309.2	546.1	 8060	9999.9	9999.9	828.1	28.78	23.33	17.82	11.85	10.79	6.450	9.912	5.831	7.665	5.803	5.963	5.434	7.366	5.159	3.503	2.659	5.120	4.127	3.882	4.352	3.741	3.286	3.338	3.151	2.947	3.450	3.543	3.180	3.896
300.0	908.8	904.1	775.2	843.2	829.6	888.4	675.6	406.3	257.9	282.2	325.1	326.6	345.4	442.0	806.6	860.8	546.9	384.0	720.3	9999.9	9999.9	9999.9	802.4	35.09	27.85	19.28	17.07	11.03	8.857	8.671	7.909	6.602	5.139	6.787	5.613	6.303	5.486	3.633	4.420	5.257	4.053	4.021	3.957	4.210	4.964	3.883	3.590	2.821	3.959	4.025	4.884
305.0	969.2	 1026	807.6	821.6	 1020	 1000	955.8	644.7	390.7	353.0	403.4	374.2	458.8	549.7	700.5	 1204	 1117	659.4	419.1	834.8	9999.9	9999.9	9999.9	962.4	31.00	29.26	25.37	17.44	14.45	10.46	10.21	8.908	7.561	6.699	6.684	4.696	5.159	4.754	4.084	4.808	5.769	5.248	4.293	3.369	4.370	3.101	5.558	4.534	4.227	5.471	5.559
310.0	 1016	 1048	928.7	 1060	 1078	 1310	 1178	773.2	503.2	435.9	477.2	539.7	563.8	699.9	901.1	 1126	 1589	 1108	606.4	362.4	783.2	9999.9	9999.9	9999.9	978.1	36.68	33.47	21.81	17.80	10.95	11.90	11.53	7.950	6.766	6.537	4.854	5.966	5.912	5.538	5.589	4.854	5.463	4.367	4.395	4.892	5.162	4.369	4.741	5.086	7.095	4.477
315.0	809.4	 1081	 1038	979.3	 1302	 1419	 1377	903.1	616.7	493.4	549.2	677.9	717.8	817.2	 1108	 1333	 1506	 1672	972.7	494.1	277.4	783.0	9999.9	9999.9	9999.9	867.6	40.11	29.48	24.41	16.93	12.55	10.56	9.877	9.096	7.953	7.371	5.395	5.987	5.819	6.690	4.203	6.467	5.477	4.811	5.729	4.608	4.962	6.436	4.577	6.308	6.420
320.0	935.2	 1146	 1060	 1187	 1410	 1765	 1616	 1191	756.2	606.8	639.9	731.4	829.2	 1003	 1312	 1523	 1626	 1698	 1632	762.8	321.9	211.4	743.7	9999.9	9999.9	9999.9	853.0	52.80	32.12	28.66	18.10	13.67	12.10	12.30	7.078	7.197	6.344	6.201	6.056	6.052	5.113	5.586	5.316	5.507	5.776	4.951	6.369	4.514	6.231	6.340	8.764
325.0	 1011	 1187	 1276	 1169	 1510	 2041	 2036	 1429	905.6	665.6	746.2	762.0	961.1	 1181	 1572	 1776	 1926	 1798	 1671	 1243	469.2	226.6	177.5	739.0	9999.9	9999.9	9999.9	926.3	50.00	36.65	30.03	20.87	17.28	11.47	11.45	9.167	8.415	6.686	5.477	5.757	5.208	5.990	5.810	4.421	5.211	5.793	5.764	6.426	6.484	7.466	7.731
330.0	899.3	 1233	 1200	 1425	 1738	 2039	 2163	 1761	947.0	722.9	793.9	848.1	 1058	 1333	 1694	 2010	 2074	 1913	 1584	 1351	823.1	319.6	167.3	162.9	719.7	9999.9	9999.9	9999.9	889.0	46.24	37.07	28.96	22.12	16.55	12.56	9.323	7.598	6.914	6.206	7.300	5.786	6.379	7.597	5.297	5.483	4.402	6.507	6.695	8.143	7.397	9.255
335.0	955.0	 1240	 1153	 1546	 1869	 2234	 2419	 1642	 1092	829.4	850.2	856.4	 1146	 1385	 1786	 2018	 2212	 2058	 1692	 1187	998.1	594.0	222.4	156.9	154.1	735.1	9999.9	9999.9	9999.9	891.1	53.43	39.19	28.89	25.98	15.08	11.54	10.29	9.136	6.625	6.064	5.743	7.102	5.721	4.830	6.802	5.673	7.012	7.331	5.988	8.745	9.872
340.0	816.1	 1058	 1138	 1364	 1773	 2169	 2311	 1697	 1109	838.6	883.6	878.1	 1155	 1400	 1845	 2099	 2227	 2125	 1759	 1203	805.5	815.7	423.1	196.7	152.1	167.9	731.5	9999.9	9999.9	9999.9	975.2	59.73	43.52	30.73	28.43	14.98	11.99	9.772	8.585	7.968	6.015	6.114	7.172	6.623	6.133	6.319	5.209	7.756	8.285	9.394	9.846
345.0	797.4	935.4	 1113	 1346	 1791	 2230	 2296	 1719	 1200	991.3	922.4	943.5	 1114	 1483	 1771	 2115	 2243	 2167	 1775	 1246	743.4	612.0	686.0	344.5	192.3	167.0	169.4	722.0	9999.9	9999.9	9999.9	 1031	55.95	42.48	30.78	25.31	14.69	14.78	10.78	7.697	7.160	5.835	6.183	8.022	6.118	5.404	5.701	6.766	7.598	8.190	8.986
350.0	707.8	 1083	 1019	 1261	 1524	 2138	 2301	 1663	 1080	 1000	843.5	930.7	 1111	 1453	 1710	 2029	 2230	 2086	 1764	 1239	787.4	551.2	567.4	658.7	320.7	219.8	182.3	179.7	735.6	9999.9	9999.9	9999.9	 1088	61.52	40.82	32.69	23.35	15.66	12.16	8.639	8.314	6.737	5.715	5.853	6.948	5.048	6.260	7.109	7.604	8.120	8.722
355.0	690.7	818.8	929.5	 1108	 1603	 2096	 2013	 1592	 1149	996.7	905.3	994.9	 1133	 1402	 1668	 2055	 2108	 2025	 1710	 1270	829.0	601.9	478.3	615.3	600.6	298.2	216.6	177.3	179.0	739.5	9999.9	9999.9	9999.9	 1106	62.32	45.27	26.93	24.45	16.72	11.28	10.58	8.157	6.349	6.481	6.698	7.325	5.047	6.045	6.787	7.446	9.679
360.0	619.1	809.7	995.1	 1102	 1483	 2008	 1903	 1411	 1111	 1015	914.4	939.4	 1192	 1357	 1635	 1913	 2048	 1922	 1710	 1274	836.8	635.1	521.6	504.8	693.2	548.6	301.3	247.0	189.2	180.4	730.2	9999.9	9999.9	9999.9	 1048	62.68	41.46	28.82	20.87	17.69	10.27	8.577	6.424	7.767	5.548	6.738	4.837	6.682	6.814	9.646	7.675
365.0	667.9	767.4	841.4	 1047	 1468	 1672	 1820	 1419	 1074	942.6	898.1	954.9	 1090	 1301	 1586	 1800	 1847	 1828	 1565	 1205	888.3	688.5	599.9	527.2	567.8	754.4	494.8	312.6	240.6	191.0	169.9	730.9	9999.9	9999.9	9999.9	 1149	58.70	40.63	28.24	19.33	14.52	11.48	8.483	9.107	6.678	7.101	6.316	7.286	7.221	7.530	6.644
370.0	551.8	648.4	771.3	 1029	 1296	 1590	 1675	 1413	 1073	943.8	914.6	922.6	 1059	 1282	 1471	 1647	 1718	 1709	 1550	 1190	863.7	735.3	641.2	594.7	572.9	606.4	741.6	463.5	311.2	238.6	184.7	169.7	720.6	9999.9	9999.9	9999.9	 1092	53.37	39.21	25.95	21.50	14.17	12.49	9.131	7.314	5.837	6.772	6.864	6.144	7.204	6.729
375.0	438.6	594.7	751.1	 1036	 1008	 1498	 1550	 1327	 1069	966.5	901.0	865.4	 1057	 1230	 1361	 1593	 1679	 1624	 1425	 1136	873.2	775.5	721.4	665.4	626.6	580.7	674.5	691.5	413.8	313.2	238.3	170.1	164.5	724.3	9999.9	9999.9	9999.9	 1174	57.62	41.35	28.42	19.68	11.61	8.703	8.408	6.866	6.578	5.116	7.158	6.089	6.739
380.0	477.4	644.3	791.6	937.6	 1143	 1421	 1362	 1209	 1066	970.0	882.0	950.1	 1009	 1144	 1296	 1468	 1529	 1444	 1363	 1096	888.0	828.6	775.8	698.8	689.1	640.4	602.8	703.5	639.6	381.0	281.2	216.6	178.5	163.2	729.5	9999.9	9999.9	9999.9	 1039	57.11	33.71	23.43	20.26	11.30	11.01	9.096	7.781	6.728	7.209	7.792	7.114
385.0	358.4	546.2	639.3	862.9	 1031	 1288	 1238	 1166	987.8	963.3	925.6	924.7	 1009	 1174	 1208	 1362	 1444	 1467	 1344	 1097	924.9	837.1	786.5	755.7	745.7	713.5	641.8	618.4	706.4	576.2	349.1	275.4	215.5	160.1	162.3	723.4	 9271	9999.9	9999.9	 1085	49.81	36.40	24.11	16.75	13.34	10.68	8.412	9.666	7.772	6.562	8.225
390.0	431.2	516.2	818.4	890.5	 1030	 1137	 1242	 1126	990.6	909.0	892.1	932.2	 1004	 1061	 1152	 1235	 1339	 1363	 1239	 1051	920.3	861.2	830.6	797.3	788.9	743.7	703.8	641.9	641.1	723.7	496.2	348.9	274.4	208.3	167.5	158.9	672.1	 8618	9999.9	9999.9	 1007	47.52	33.65	22.81	15.09	12.43	11.19	8.064	7.548	7.342	7.056
395.0	335.7	470.6	658.8	842.1	 1084	 1172	 1159	 1068	938.4	980.8	922.0	929.7	991.1	 1084	 1131	 1298	 1290	 1275	 1192	 1056	926.6	884.3	847.1	832.1	837.1	806.6	745.3	695.6	626.9	645.6	685.1	452.6	340.3	279.7	209.7	168.3	154.2	630.6	 8163	9999.9	9999.9	 1009	46.96	33.92	22.97	15.50	11.83	10.50	8.544	8.875	7.036
400.0	354.4	539.5	551.2	711.9	978.3	 1182	 1194	 1072	 1066	879.8	957.5	895.0	974.6	 1101	 1143	 1254	 1245	 1244	 1148	 1035	934.9	893.6	880.4	859.2	865.9	829.8	800.0	747.0	685.9	645.6	670.1	657.9	440.8	341.0	272.9	207.2	155.2	145.0	593.2	 8023	9999.9	9999.9	896.9	43.70	28.77	20.14	14.24	12.26	8.124	9.227	6.766
405.0	323.9	431.8	622.5	767.2	926.8	 1127	 1203	 1000	 1021	 1010	941.6	917.0	 1084	 1057	 1141	 1218	 1234	 1179	 1114	 1016	924.1	927.8	898.1	877.9	893.0	850.9	822.1	792.8	721.3	680.1	635.4	713.6	604.8	427.8	334.3	260.1	194.7	149.6	136.0	583.8	 6906	9999.9	9999.9	805.2	38.40	26.12	18.72	13.33	10.22	10.38	8.056
410.0	367.6	456.0	589.1	708.5	944.7	 1016	 1075	 1007	 1003	 1047	 1000	989.9	 1006	 1034	 1155	 1158	 1179	 1130	 1082	 1005	927.7	895.5	901.7	877.6	905.7	874.3	879.1	822.4	762.4	740.1	671.7	624.6	723.5	568.7	409.0	314.2	245.8	181.3	129.4	138.0	505.3	 6930	9999.9	9999.9	753.4	39.40	26.02	18.25	10.97	11.62	9.811
415.0	445.1	477.9	538.7	702.3	878.4	 1010	 1124	 1095	956.9	995.0	979.8	976.8	981.9	 1070	 1127	 1186	 1184	 1103	 1097	992.0	940.7	902.3	900.2	922.7	892.9	891.9	890.9	864.2	824.6	763.7	732.8	672.9	642.8	690.9	520.3	367.7	302.6	225.0	173.6	131.5	121.7	499.5	 6665	9999.9	9999.9	752.2	35.37	24.00	16.47	13.45	11.69
420.0	337.3	540.7	480.3	648.6	833.1	 1025	998.4	984.6	 1015	 1033	970.2	 1031	 1031	 1041	 1146	 1241	 1173	 1112	 1021	949.8	904.7	880.2	871.2	885.2	900.9	918.7	892.7	888.7	846.4	811.0	748.0	695.8	658.0	678.1	654.1	466.5	341.9	266.1	206.9	157.3	116.5	117.3	480.2	 6354	9999.9	9999.9	652.3	34.07	21.01	15.49	14.13
425.0	450.7	412.6	619.7	723.1	919.5	943.2	964.0	 1042	998.8	 1014	997.2	 1001	 1057	 1109	 1131	 1178	 1162	 1077	996.8	933.5	852.5	861.7	846.6	870.3	895.4	887.7	885.8	856.8	839.3	819.5	770.0	740.1	691.1	643.1	672.7	579.4	408.4	300.4	234.5	188.2	135.4	100.5	104.8	458.0	 5980	9999.9	9999.9	559.9	32.70	20.10	16.05
430.0	327.0	394.6	617.3	654.9	819.9	856.0	841.1	936.9	956.2	 1010	977.1	958.8	 1040	 1109	 1128	 1179	 1184	 1038	974.6	874.9	847.3	859.0	835.8	857.8	876.5	885.5	876.0	857.9	850.1	829.2	792.2	760.6	727.2	685.7	625.3	621.8	501.1	344.6	270.4	216.0	164.5	122.7	99.17	99.95	431.4	 5761	9999.9	9999.9	521.8	32.27	19.80
435.0	400.1	303.1	565.9	573.2	755.2	735.8	920.8	987.6	933.6	980.9	981.6	989.9	 1062	 1098	 1108	 1182	 1129	 1080	980.2	861.9	806.9	823.7	850.2	848.1	852.5	868.7	862.2	875.7	848.3	842.2	804.3	781.3	733.3	694.3	647.1	595.4	575.5	426.1	292.4	246.2	179.9	145.2	109.5	85.58	91.51	411.5	 5548	9999.9	9999.9	501.0	31.13
440.0	306.7	363.3	482.2	560.6	675.4	764.5	977.0	943.3	923.8	971.4	968.2	 1010	 1048	 1044	 1129	 1193	 1110	 1056	941.0	862.1	789.0	793.1	816.0	821.2	833.7	834.4	846.4	813.8	823.1	837.9	812.5	802.0	758.7	702.5	664.2	581.3	547.3	507.3	357.0	271.0	212.4	181.0	131.3	110.3	79.66	93.24	397.9	 5460	9999.9	9999.9	446.0
445.0	354.8	321.6	433.7	548.5	700.9	736.9	829.4	799.9	867.4	909.8	914.2	955.7	 1038	 1019	 1148	 1121	 1065	 1041	905.9	812.3	765.3	732.8	768.1	795.3	779.7	814.1	809.4	842.8	821.4	806.7	806.0	766.3	748.9	708.2	643.9	586.8	523.9	496.9	424.3	297.1	234.4	184.2	150.2	121.1	96.08	77.57	83.04	397.7	 5479	9999.9	9999.9
450.0	260.5	328.5	443.2	583.4	537.5	838.0	780.3	781.2	846.1	875.7	951.1	909.2	966.6	 1036	 1127	 1069	 1024	953.1	849.9	753.6	753.6	717.5	729.9	735.9	771.6	766.5	777.3	796.7	788.6	794.1	791.6	744.4	735.8	698.4	647.2	584.9	502.1	449.3	442.3	352.0	249.9	206.2	163.2	138.6	108.6	83.71	76.76	83.96	392.8	 5192	9999.9
455.0	268.4	370.7	372.9	489.1	484.7	790.3	836.8	801.5	878.2	871.6	851.1	866.5	958.3	985.9	 1023	 1019	985.4	946.4	817.5	744.7	666.5	672.9	674.7	696.8	709.8	733.7	746.9	742.7	745.2	734.8	762.9	715.6	707.9	672.2	632.9	577.5	511.6	440.4	402.3	388.6	310.7	226.1	189.6	154.4	125.0	102.5	84.35	66.19	74.76	372.0	 5220
460.0	330.5	305.2	431.4	533.9	553.5	630.0	702.4	676.0	839.4	811.0	883.2	857.1	814.5	907.4	971.2	975.8	949.7	859.5	771.3	691.9	632.5	620.8	628.4	648.3	654.5	680.4	680.6	714.0	697.3	698.6	695.8	677.6	670.0	674.3	603.6	556.8	481.5	425.3	364.8	366.0	340.2	247.1	201.0	173.6	138.7	114.4	93.73	78.02	61.48	69.09	367.8
465.0	240.6	365.9	395.1	515.2	500.7	604.8	703.4	658.9	682.2	694.6	827.0	811.3	822.3	904.3	964.6	948.9	931.2	782.6	687.6	647.5	614.0	613.7	606.2	600.4	619.7	628.4	643.7	635.1	666.2	640.5	647.3	636.1	641.9	617.8	581.2	537.5	476.2	410.7	366.2	333.3	315.1	288.8	215.3	177.2	138.7	118.2	100.4	85.01	71.42	57.86	69.77
470.0	274.7	244.7	439.8	339.3	493.1	552.6	693.9	640.5	675.9	674.7	755.7	760.9	789.1	840.7	849.3	881.2	879.8	785.2	694.6	612.2	564.2	559.4	561.6	558.5	555.1	569.2	572.3	602.7	611.8	606.1	600.1	599.1	576.2	594.1	555.5	514.9	453.4	417.7	353.3	317.7	292.9	300.9	233.4	182.1	148.4	132.7	99.40	82.76	77.93	59.62	50.85
475.0	257.1	336.6	402.6	361.0	489.8	453.9	509.5	605.6	702.9	624.1	703.6	670.2	719.3	753.9	744.6	803.9	759.2	711.4	596.1	539.7	514.9	509.5	535.7	497.2	516.9	543.9	539.9	546.8	549.1	555.3	556.8	549.4	542.4	538.2	521.1	465.4	441.4	387.6	344.3	305.8	259.8	251.3	253.5	196.1	166.0	137.6	117.8	104.7	76.99	71.63	53.97
480.0	178.3	309.9	237.1	283.2	411.4	473.8	476.5	502.2	582.8	598.3	658.3	645.6	704.1	693.5	737.8	737.8	733.4	647.8	581.1	543.7	473.5	490.8	474.0	481.3	481.5	481.7	491.2	493.4	497.1	524.9	517.8	517.4	526.2	507.7	480.5	454.4	402.9	381.6	324.9	299.0	263.5	230.0	241.0	223.4	174.8	138.8	120.1	103.9	86.15	68.54	62.06
485.0	147.3	300.3	264.7	321.9	398.8	459.1	434.3	504.2	539.5	568.7	577.9	601.0	674.8	643.7	702.5	697.6	690.6	576.8	532.8	496.2	436.9	441.3	432.3	450.3	433.3	453.9	447.4	457.0	483.0	489.9	467.0	473.9	472.6	463.8	450.1	425.2	387.9	359.3	319.5	289.9	256.5	229.8	214.3	229.6	202.9	151.5	126.2	113.4	91.82	76.29	62.39
490.0	169.4	239.5	204.2	275.4	404.2	434.6	489.2	452.4	518.3	565.9	554.5	614.2	605.9	629.7	648.5	652.3	648.8	587.7	499.8	472.9	445.6	425.6	397.7	414.6	406.0	421.7	416.3	427.2	432.1	438.6	430.2	440.8	433.9	447.3	416.3	417.5	375.0	337.1	305.9	281.1	254.6	225.1	198.3	184.9	205.6	167.8	132.8	110.0	91.80	83.44	66.74
495.0	186.6	190.0	194.3	289.7	359.8	385.4	465.3	499.7	439.7	483.3	525.1	558.8	555.5	588.3	575.4	610.5	598.5	529.3	498.7	414.7	392.7	390.8	393.9	385.1	383.8	398.8	395.6	397.7	407.1	404.3	413.2	420.0	408.8	415.5	414.9	391.6	363.5	309.9	296.2	270.9	247.1	224.2	201.4	186.9	181.2	180.6	147.8	117.8	99.13	85.14	72.68
500.0	135.2	196.7	234.0	207.5	269.4	312.4	359.0	398.7	400.9	482.7	506.3	519.1	541.3	540.3	549.9	576.1	543.3	500.0	459.3	408.3	374.9	373.5	363.8	351.6	362.5	341.5	348.6	365.8	377.5	377.6	361.4	378.7	385.8	382.1	368.7	349.9	324.4	290.3	272.9	248.4	222.5	207.4	195.9	175.5	160.6	163.6	155.2	133.1	103.9	84.85	73.87
505.0	102.0	144.4	192.5	175.4	260.8	313.2	332.3	428.1	415.8	481.6	448.1	488.7	477.6	514.2	535.3	519.9	529.4	451.7	411.7	359.5	347.1	337.1	311.3	316.0	320.6	314.9	340.2	339.0	323.0	328.0	338.9	335.5	342.0	335.1	354.5	333.0	310.1	275.7	252.5	236.8	212.6	203.7	190.5	165.1	156.7	146.8	151.8	138.4	111.6	86.29	72.85
510.0	170.6	259.9	245.3	180.7	284.1	344.1	309.7	422.3	368.3	392.1	407.9	389.1	449.5	452.4	476.9	474.0	474.2	411.0	389.4	338.4	333.0	280.9	287.6	293.2	290.4	293.3	292.9	304.2	291.7	310.8	309.9	301.1	303.4	312.6	321.5	296.7	286.7	254.5	246.4	217.9	203.0	191.0	175.6	161.9	148.2	140.3	130.4	139.6	120.1	87.05	76.24
515.0	190.8	173.6	187.1	176.9	246.7	231.5	282.1	328.9	326.6	376.1	349.0	367.1	394.8	437.1	450.5	451.1	452.5	434.2	334.5	313.7	294.9	263.3	266.4	249.9	275.2	272.7	273.3	268.0	282.8	287.2	267.3	282.7	281.3	288.7	288.5	269.3	241.8	231.4	221.0	201.9	200.2	174.1	165.4	148.9	142.3	126.1	119.3	119.2	119.8	97.82	80.59
520.0	210.2	170.3	107.6	202.2	208.8	274.6	218.9	293.7	277.2	364.7	330.1	365.7	368.3	382.0	439.1	381.5	366.0	378.2	317.8	287.9	270.2	249.7	238.4	236.5	230.5	237.7	229.7	237.0	249.8	258.8	254.9	262.9	249.5	261.3	248.0	247.4	235.3	215.5	201.3	186.3	166.1	163.3	145.2	139.4	132.7	120.7	110.2	93.45	107.9	105.6	82.22
525.0	120.7	116.7	103.8	224.3	206.5	163.8	298.0	250.4	234.7	281.3	308.8	340.5	301.5	349.7	384.7	389.7	372.8	338.2	303.1	265.2	241.2	233.0	217.0	215.6	202.8	212.9	208.5	212.0	220.4	231.8	219.5	227.8	225.8	233.2	226.6	208.8	209.1	197.9	185.2	170.9	159.3	146.7	142.1	127.3	112.8	111.9	95.53	94.41	86.20	94.06	85.81
530.0	171.9	105.3	157.0	160.2	175.1	212.9	199.4	245.8	225.1	262.6	304.7	287.6	306.5	332.0	356.5	349.2	329.6	324.9	252.2	226.8	212.4	213.0	205.5	188.5	187.7	179.2	189.0	188.5	194.3	195.3	194.3	204.7	204.1	200.7	198.2	197.3	182.4	179.4	163.9	155.1	143.3	134.8	122.6	121.0	106.9	106.6	90.98	88.18	77.04	82.58	90.11
535.0	83.61	85.55	137.9	108.0	210.4	182.6	154.3	213.2	207.3	251.7	247.8	248.1	277.9	299.9	290.1	317.0	287.9	270.9	226.6	216.3	192.1	188.0	183.4	166.8	171.9	173.9	180.6	173.6	162.6	170.0	168.1	178.7	178.8	186.5	185.1	174.6	168.4	159.8	144.7	141.8	126.6	121.4	113.0	110.7	96.45	98.81	82.69	84.32	75.25	75.56	74.66
540.0	56.74	117.5	73.40	121.5	151.6	134.9	154.5	160.0	178.9	218.8	195.2	225.8	226.3	221.3	288.2	294.6	265.2	276.0	204.8	201.4	187.1	185.1	175.4	161.6	150.8	160.2	138.2	142.7	151.6	153.2	151.6	154.2	163.9	150.4	152.9	154.8	145.5	147.2	132.9	126.1	118.8	103.8	98.87	99.77	91.63	89.51	80.84	78.35	70.08	65.34	66.56
545.0	91.44	99.88	91.27	102.5	172.3	177.2	153.6	184.8	175.1	203.6	215.9	178.4	207.6	229.5	295.8	362.3	256.8	226.1	200.4	175.8	162.6	159.3	140.6	150.3	142.6	136.0	139.2	135.0	141.2	134.5	136.0	141.0	144.2	139.7	145.3	138.0	129.5	132.1	114.9	109.4	101.0	104.0	91.98	88.91	84.20	79.75	73.04	71.30	64.06	62.75	59.33
550.0	75.69	127.0	75.85	86.74	97.70	158.7	172.7	169.6	173.7	172.4	188.9	188.5	220.7	204.1	225.7	431.4	286.2	205.7	184.2	158.6	149.8	133.3	142.5	139.0	125.7	118.4	130.6	123.6	122.1	124.8	128.5	123.7	130.3	133.7	125.0	133.3	112.4	111.2	105.9	102.0	89.68	94.43	87.61	79.89	80.24	71.00	70.30	69.10	60.03	61.29	53.22
