Sample:	'SLABO1-5-5-320
File name:	2H12.FD3
Run Date:	17:41:08, 08/17/2022
Operator:	Administrator
Comment:	'

Instrument
Model:	F-7000 FL Spectrophotometer
Serial Number:	2354-007
ROM Version:	5J14000 06

Instrument Parameters
Measurement type:	3-D Scan
Data mode:	Fluorescence
EX  Start WL:	200.0 nm
EX  End WL:	450.0 nm
EX Sampling Interval:	5.0 nm
EM  Start WL:	280.0 nm
EM  End WL:	550.0 nm
EM Sampling Interval:	5.0 nm
Scan speed:	12000 nm/min
EX Slit:	5.0 nm
EM Slit:	5.0 nm
PMT Voltage:	700 V
Response:	Auto 
Corrected spectra:	Off
Shutter control:	On
Contour interval:	25.000

Peak integration
Integration method:	Rectangular
Sensitivity:	1
Threshold:	1.000

Peaks
No.	ApexEX/EM(nm)	Height(Data)
1	230.0/330.0	 2018
2	230.0/340.0	 2106
3	230.0/380.0	 1479
4	230.0/400.0	 1498
5	230.0/415.0	 1519
6	230.0/535.0	303.9
7	235.0/425.0	 1475
8	235.0/445.0	 1323
9	245.0/430.0	 1539
10	250.0/415.0	 1546
11	255.0/420.0	 1589
12	260.0/430.0	 1664
13	265.0/425.0	 1646
14	265.0/455.0	 1606
15	275.0/380.0	 1645
16	275.0/430.0	 1756
17	275.0/445.0	 1678
18	280.0/340.0	 1975
19	280.0/355.0	 1954
20	280.0/390.0	 1615
21	280.0/400.0	 1616
22	285.0/315.0	 1619
23	310.0/345.0	709.0
24	315.0/355.0	709.8
25	315.0/410.0	 1435
26	320.0/360.0	797.8
27	320.0/420.0	 1439
28	325.0/365.0	863.7
29	330.0/370.0	904.9
30	330.0/415.0	 1413
31	335.0/380.0	953.8
32	340.0/385.0	992.1
33	380.0/295.0	6.443
34	395.0/315.0	7.306
35	400.0/295.0	6.011
36	400.0/305.0	6.833
37	405.0/290.0	5.144
38	410.0/310.0	6.484
39	410.0/340.0	7.809
40	425.0/355.0	8.017
41	435.0/360.0	8.306
42	440.0/305.0	6.391
43	440.0/325.0	8.337
44	440.0/355.0	9.186
45	445.0/345.0	9.400

Data Points
	200.0	205.0	210.0	215.0	220.0	225.0	230.0	235.0	240.0	245.0	250.0	255.0	260.0	265.0	270.0	275.0	280.0	285.0	290.0	295.0	300.0	305.0	310.0	315.0	320.0	325.0	330.0	335.0	340.0	345.0	350.0	355.0	360.0	365.0	370.0	375.0	380.0	385.0	390.0	395.0	400.0	405.0	410.0	415.0	420.0	425.0	430.0	435.0	440.0	445.0	450.0
280.0	49.20	66.57	98.04	36.82	112.8	69.31	28.52	41.76	16.93	41.49	35.59	69.97	42.76	9.180	18.19	 1313	 7213	 2687	75.69	11.84	13.13	12.03	11.00	10.71	5.541	7.404	7.139	4.961	6.274	4.980	6.506	6.232	6.842	4.611	5.336	4.477	3.548	4.502	3.246	3.570	2.872	2.715	2.083	2.644	3.170	2.336	1.913	2.454	2.083	2.000	0.751
285.0	243.9	189.6	158.1	153.8	165.1	205.4	159.6	82.16	58.15	78.72	113.1	135.2	183.4	124.7	71.17	159.2	 3144	9999.9	9999.9	501.5	20.78	17.94	18.12	12.59	11.89	7.710	5.184	8.922	7.257	6.699	5.157	4.519	3.941	5.271	4.916	4.593	4.371	3.770	3.816	2.905	2.904	3.028	3.165	2.832	2.871	1.777	2.773	2.136	2.398	3.138	2.354
290.0	367.4	354.4	299.9	421.4	407.9	381.1	360.3	164.5	102.1	124.1	151.6	171.9	215.8	313.0	227.5	184.0	351.4	 6974	9999.9	9999.9	687.4	28.16	19.66	17.84	14.81	11.82	8.334	7.758	7.355	7.567	6.669	4.996	6.945	6.022	6.214	5.132	3.750	3.848	3.946	4.012	4.535	5.144	3.001	3.112	2.324	2.692	3.851	2.954	2.991	3.418	2.339
295.0	453.1	519.3	523.8	534.9	601.3	651.4	518.1	309.4	158.5	162.1	194.7	248.2	238.5	374.4	555.9	424.1	347.6	665.2	9999.9	9999.9	9999.9	825.0	29.73	26.76	25.62	16.83	14.87	10.67	8.193	6.912	7.622	5.000	7.543	5.625	6.337	4.962	6.443	4.875	5.416	4.540	6.011	3.946	3.511	3.684	3.714	2.693	3.630	3.865	4.023	5.200	2.765
300.0	512.2	663.9	600.4	693.7	770.3	929.6	740.1	419.3	254.6	198.5	269.1	260.5	324.7	401.0	762.2	888.0	575.0	442.3	857.8	9999.9	9999.9	9999.9	862.7	39.98	30.68	26.05	19.55	15.66	11.37	8.994	9.417	8.109	7.138	7.354	6.218	5.413	4.803	4.889	4.916	3.719	4.640	4.408	4.192	3.239	4.196	3.686	3.200	5.934	6.166	5.005	5.391
305.0	723.1	720.5	743.9	794.7	 1050	 1170	 1025	603.5	364.7	266.1	303.8	328.1	413.8	512.9	739.9	 1226	 1119	672.8	404.5	830.4	9999.9	9999.9	9999.9	987.2	46.77	37.67	24.23	20.44	14.32	12.10	10.86	9.492	8.088	9.452	7.637	6.711	6.747	5.444	5.638	4.234	6.833	6.089	4.912	4.135	4.213	4.387	4.245	4.262	6.391	5.273	4.747
310.0	756.6	934.9	779.3	930.6	 1084	 1251	 1251	775.7	406.3	329.5	382.3	418.4	518.9	661.9	866.0	 1186	 1472	 1061	575.8	337.1	790.7	9999.9	9999.9	9999.9	 1031	45.03	37.83	34.55	21.72	17.52	12.38	11.43	11.57	9.445	8.728	6.185	7.968	5.988	5.242	6.177	6.130	4.554	6.484	5.892	4.469	5.137	4.541	5.460	4.718	5.610	6.498
315.0	649.8	844.6	872.8	860.8	 1171	 1410	 1230	900.0	514.2	417.0	449.2	537.3	584.4	758.3	 1036	 1252	 1470	 1619	878.1	430.6	256.7	757.4	9999.9	9999.9	9999.9	901.3	50.37	41.79	33.16	27.93	15.61	12.44	10.59	11.68	9.847	8.730	7.023	5.972	6.020	7.306	5.925	6.037	4.926	4.959	5.111	5.577	5.474	5.463	4.418	6.621	6.759
320.0	730.2	874.2	848.3	 1020	 1375	 1521	 1439	 1048	610.3	480.1	517.7	563.5	714.9	932.8	 1197	 1525	 1557	 1578	 1367	707.0	310.5	208.3	745.3	9999.9	9999.9	9999.9	879.5	61.87	46.16	35.11	24.13	17.98	15.67	11.78	10.51	8.685	9.372	6.732	8.005	5.627	6.213	5.960	4.459	5.013	6.047	5.435	6.484	7.361	6.789	7.907	7.378
325.0	725.7	895.6	923.5	 1225	 1343	 1642	 1727	 1231	730.0	541.3	582.9	658.9	845.7	 1064	 1389	 1667	 1732	 1572	 1445	 1123	452.0	211.6	178.8	750.3	9999.9	9999.9	9999.9	952.0	68.44	41.39	35.65	26.94	20.75	16.05	11.59	9.776	8.336	6.595	7.064	7.522	6.497	6.311	6.001	6.502	6.627	4.364	6.609	6.855	8.337	7.764	7.820
330.0	694.2	877.8	954.9	 1021	 1432	 1776	 2018	 1292	825.3	565.7	635.2	693.0	899.1	 1162	 1483	 1767	 1875	 1719	 1397	 1200	762.6	297.9	182.6	174.7	739.9	9999.9	9999.9	9999.9	922.5	68.32	52.80	36.49	27.78	22.64	18.50	13.44	11.30	8.978	8.184	7.594	5.793	5.516	5.751	6.326	6.658	5.234	7.703	7.974	8.002	9.136	7.887
335.0	652.9	865.2	861.5	966.7	 1514	 1862	 1924	 1368	933.1	675.1	648.9	763.2	946.4	 1198	 1530	 1866	 1951	 1805	 1479	 1051	943.0	564.0	229.4	155.5	171.5	746.4	9999.9	9999.9	9999.9	939.9	68.85	51.28	39.65	30.85	20.51	16.01	14.37	14.91	6.519	8.188	7.561	7.019	6.471	5.472	6.236	6.111	7.250	6.970	7.300	8.984	8.083
340.0	567.2	703.1	815.6	 1081	 1406	 1844	 2106	 1462	964.5	749.6	649.3	753.7	949.0	 1287	 1564	 1941	 1975	 1903	 1534	 1050	748.9	773.8	427.3	218.4	178.4	184.6	750.4	9999.9	9999.9	9999.9	 1060	78.98	57.72	38.04	34.66	21.55	15.50	11.48	12.15	9.976	7.217	6.794	7.809	6.857	6.389	6.373	6.388	8.334	7.424	8.566	10.19
345.0	643.6	697.1	893.8	 1128	 1529	 1810	 1876	 1420	916.8	770.3	680.1	813.8	 1023	 1280	 1521	 1826	 1945	 1883	 1574	 1080	719.4	609.8	709.0	370.5	214.2	188.1	189.8	767.1	9999.9	9999.9	9999.9	 1166	79.42	53.99	42.84	27.85	20.98	15.47	12.58	10.69	8.631	6.577	6.788	5.199	6.263	7.514	7.074	7.328	5.940	9.400	8.036
350.0	597.8	585.1	871.8	 1043	 1455	 1735	 1859	 1350	 1019	837.4	770.1	808.7	 1030	 1286	 1547	 1821	 1901	 1840	 1599	 1147	742.6	581.4	639.2	660.7	360.7	253.1	228.6	207.5	770.6	9999.9	9999.9	9999.9	 1193	78.33	54.35	39.80	28.17	20.25	13.93	10.45	9.314	9.241	7.009	6.378	6.419	7.939	7.147	7.149	8.137	9.375	9.033
355.0	469.9	578.1	787.4	922.6	 1371	 1670	 1774	 1466	 1062	913.6	857.9	849.7	 1030	 1283	 1536	 1786	 1954	 1829	 1617	 1196	852.5	653.4	585.4	709.8	661.6	391.5	296.7	229.4	237.5	776.4	9999.9	9999.9	9999.9	 1269	85.53	56.79	39.00	27.56	20.58	12.94	12.30	8.801	7.030	6.220	7.585	8.017	6.955	8.067	9.186	7.793	8.760
360.0	426.3	545.5	800.6	835.0	 1324	 1645	 1691	 1378	 1069	 1001	906.0	845.4	 1070	 1281	 1453	 1727	 1899	 1810	 1586	 1242	864.8	719.3	655.0	602.2	797.8	643.5	416.6	344.6	274.5	234.1	776.4	9999.9	9999.9	9999.9	 1205	84.94	57.94	36.73	25.39	18.32	15.15	10.84	9.818	7.629	6.218	6.963	7.543	8.306	6.441	7.870	8.547
365.0	394.6	459.5	829.0	826.7	 1192	 1610	 1510	 1411	 1052	 1067	917.4	902.6	 1093	 1279	 1493	 1681	 1773	 1715	 1527	 1221	960.0	799.9	742.7	703.3	721.2	863.7	644.6	448.4	376.5	277.7	233.0	788.8	9999.9	9999.9	9999.9	 1339	81.92	55.37	39.91	26.70	16.21	14.35	10.66	7.996	8.358	7.574	6.234	6.132	7.561	8.102	7.593
370.0	430.2	502.5	609.0	883.7	 1215	 1335	 1356	 1294	 1101	 1055	952.3	968.8	 1158	 1289	 1495	 1637	 1675	 1681	 1557	 1259	 1039	916.1	851.3	824.7	789.5	807.8	904.9	624.3	461.3	360.8	274.0	239.0	778.9	9999.9	9999.9	9999.9	 1294	75.48	52.03	38.37	23.75	19.10	13.22	10.26	8.934	8.777	8.135	6.863	7.410	7.034	6.500
375.0	402.4	532.5	649.1	865.4	 1268	 1417	 1399	 1271	 1102	 1063	 1025	 1018	 1112	 1278	 1433	 1592	 1657	 1629	 1529	 1271	 1071	 1008	965.5	935.1	895.3	842.1	894.4	916.8	614.9	451.7	351.9	258.1	231.6	775.7	9999.9	9999.9	9999.9	 1383	73.72	45.45	32.01	24.52	17.82	12.86	12.17	9.344	8.102	7.478	6.262	7.610	8.584
380.0	350.4	539.1	787.6	901.1	 1174	 1427	 1479	 1286	 1152	 1114	 1051	 1087	 1147	 1303	 1431	 1645	 1615	 1604	 1476	 1305	 1161	 1105	 1061	 1045	 1001	955.8	898.8	953.8	865.6	578.3	439.3	342.5	267.1	231.7	778.3	9999.9	9999.9	9999.9	 1223	64.34	45.73	32.00	22.63	17.44	13.21	9.565	9.279	7.746	8.429	9.750	7.863
385.0	321.2	488.2	760.4	 1001	 1062	 1394	 1423	 1348	 1221	 1201	 1150	 1178	 1224	 1292	 1461	 1528	 1543	 1562	 1483	 1330	 1191	 1170	 1138	 1145	 1089	 1059	 1010	935.2	992.1	793.2	565.2	431.2	350.5	254.8	235.4	772.0	9999.9	9999.9	9999.9	 1280	64.42	43.66	30.68	24.06	16.81	13.07	9.570	9.025	8.434	8.505	8.383
390.0	411.1	486.4	792.0	924.7	 1082	 1351	 1427	 1316	 1231	 1224	 1177	 1268	 1283	 1368	 1357	 1524	 1615	 1531	 1497	 1371	 1246	 1218	 1208	 1221	 1223	 1158	 1075	 1008	956.0	979.5	753.8	547.7	420.6	336.0	261.8	234.2	775.4	9999.9	9999.9	9999.9	 1209	65.60	41.71	29.49	20.43	15.06	13.81	11.21	8.253	9.058	8.524
395.0	355.8	619.4	643.7	884.4	 1140	 1324	 1405	 1388	 1382	 1330	 1249	 1305	 1360	 1398	 1481	 1523	 1587	 1520	 1467	 1364	 1290	 1305	 1283	 1274	 1270	 1230	 1170	 1136	996.3	983.4	960.7	710.6	535.7	451.9	351.6	263.6	218.2	756.8	9999.9	9999.9	9999.9	 1239	61.31	41.73	30.98	19.85	14.33	13.84	10.26	9.519	8.452
400.0	371.9	560.5	788.6	935.7	 1075	 1364	 1498	 1418	 1410	 1334	 1403	 1291	 1373	 1405	 1478	 1593	 1616	 1549	 1480	 1433	 1352	 1376	 1357	 1346	 1333	 1322	 1274	 1180	 1083	 1016	 1003	931.1	674.2	553.0	433.5	344.8	244.6	216.6	761.4	9999.9	9999.9	9999.9	 1064	55.15	35.50	27.84	18.71	15.24	11.55	11.63	9.639
405.0	390.9	569.5	742.8	777.9	 1135	 1338	 1407	 1315	 1383	 1354	 1383	 1366	 1395	 1441	 1546	 1585	 1582	 1545	 1530	 1437	 1359	 1380	 1405	 1415	 1397	 1381	 1319	 1264	 1191	 1084	982.0	 1001	890.9	659.4	532.6	419.4	320.8	230.5	207.7	754.6	 9208	9999.9	9999.9	993.7	54.81	32.21	25.83	20.65	14.93	11.95	10.08
410.0	376.1	536.6	712.7	863.3	 1128	 1356	 1452	 1366	 1379	 1333	 1465	 1454	 1435	 1451	 1600	 1575	 1645	 1603	 1549	 1478	 1364	 1361	 1396	 1435	 1415	 1420	 1367	 1344	 1265	 1153	 1082	 1016	 1036	845.5	634.8	503.0	391.0	297.0	220.4	204.7	685.2	 9031	9999.9	9999.9	875.1	49.72	32.89	24.10	17.34	14.47	11.82
415.0	343.6	475.6	789.0	896.2	 1193	 1290	 1519	 1451	 1428	 1417	 1546	 1523	 1448	 1587	 1575	 1629	 1634	 1592	 1557	 1431	 1377	 1403	 1415	 1415	 1423	 1397	 1413	 1383	 1324	 1216	 1157	 1067	 1015	 1018	782.5	595.0	470.9	364.4	275.0	203.8	176.7	663.4	 8577	9999.9	9999.9	916.5	46.12	32.35	24.32	19.01	13.71
420.0	428.7	452.7	808.3	837.0	 1050	 1306	 1382	 1466	 1440	 1404	 1443	 1589	 1587	 1579	 1624	 1722	 1670	 1623	 1473	 1407	 1365	 1376	 1410	 1418	 1439	 1430	 1392	 1390	 1369	 1296	 1210	 1125	 1043	 1036	947.1	723.3	545.9	422.8	325.5	241.0	179.1	169.8	633.6	 8202	9999.9	9999.9	806.4	44.06	35.25	20.89	17.42
425.0	393.0	495.2	774.3	911.2	 1186	 1147	 1378	 1475	 1337	 1352	 1507	 1549	 1636	 1646	 1591	 1699	 1692	 1592	 1473	 1416	 1375	 1351	 1388	 1397	 1379	 1425	 1414	 1403	 1371	 1297	 1246	 1170	 1122	 1048	 1005	855.2	613.6	485.5	371.7	290.9	214.1	161.8	155.3	603.7	 7719	9999.9	9999.9	690.2	45.15	29.45	21.13
430.0	349.1	501.6	564.9	852.1	 1003	 1193	 1360	 1354	 1479	 1539	 1415	 1546	 1664	 1593	 1636	 1756	 1619	 1519	 1498	 1354	 1337	 1366	 1363	 1380	 1368	 1421	 1398	 1390	 1367	 1317	 1276	 1224	 1139	 1074	988.9	940.7	745.0	565.6	433.8	343.9	256.8	198.0	148.1	142.8	568.8	 7466	9999.9	9999.9	629.2	41.63	27.05
435.0	334.5	418.7	585.5	801.7	 1058	 1199	 1345	 1277	 1451	 1405	 1494	 1564	 1600	 1684	 1658	 1724	 1656	 1488	 1484	 1330	 1314	 1315	 1311	 1334	 1366	 1357	 1392	 1390	 1384	 1333	 1286	 1253	 1189	 1115	 1006	920.1	830.3	646.3	488.2	389.1	312.2	233.8	176.1	132.5	134.0	543.5	 7146	9999.9	9999.9	612.3	40.16
440.0	428.8	506.2	636.4	885.9	 1031	 1188	 1338	 1321	 1381	 1415	 1515	 1527	 1579	 1673	 1645	 1649	 1623	 1558	 1427	 1308	 1248	 1283	 1288	 1296	 1324	 1322	 1362	 1357	 1350	 1319	 1301	 1232	 1184	 1153	 1016	956.1	855.7	739.3	557.6	423.6	338.8	269.6	208.0	161.9	126.3	131.4	523.1	 7066	9999.9	9999.9	538.0
445.0	448.6	455.9	475.3	722.4	837.3	 1121	 1239	 1323	 1273	 1371	 1400	 1516	 1584	 1647	 1664	 1678	 1610	 1458	 1386	 1282	 1218	 1209	 1232	 1264	 1275	 1297	 1282	 1295	 1313	 1302	 1276	 1230	 1186	 1144	 1059	946.7	822.6	761.3	639.8	472.7	365.5	307.1	244.5	198.8	151.5	119.3	118.9	517.2	 7232	9999.9	9999.9
450.0	367.0	379.1	622.1	650.3	887.2	996.3	 1074	 1221	 1288	 1257	 1388	 1447	 1506	 1546	 1647	 1668	 1545	 1421	 1338	 1199	 1146	 1142	 1143	 1187	 1222	 1238	 1251	 1248	 1261	 1241	 1222	 1199	 1149	 1120	 1045	957.2	827.2	720.8	674.0	549.0	417.8	328.6	275.2	224.2	171.1	139.5	107.8	111.6	523.9	 6700	9999.9
455.0	256.5	320.0	543.6	686.9	848.3	 1031	 1062	 1141	 1256	 1252	 1338	 1453	 1438	 1606	 1575	 1530	 1537	 1365	 1265	 1180	 1074	 1072	 1096	 1111	 1163	 1175	 1181	 1186	 1216	 1190	 1188	 1142	 1148	 1113	 1017	954.8	800.6	743.2	649.3	582.4	464.0	351.8	289.8	247.9	197.9	162.9	126.2	100.6	107.2	483.7	 6760
460.0	254.9	344.0	436.9	732.4	737.5	891.4	 1034	 1148	 1173	 1176	 1228	 1314	 1407	 1457	 1551	 1541	 1456	 1322	 1202	 1083	 1067	 1025	 1037	 1017	 1059	 1113	 1074	 1123	 1115	 1110	 1110	 1103	 1074	 1052	 1010	901.4	800.1	728.0	595.9	552.5	504.6	390.7	319.5	261.0	213.4	180.8	147.2	118.7	93.95	101.3	484.2
465.0	284.7	331.6	610.4	619.2	692.4	903.3	931.6	962.0	 1130	 1111	 1146	 1235	 1330	 1388	 1438	 1474	 1395	 1290	 1108	 1049	953.5	944.1	962.7	986.1	 1003	 1021	 1034	 1043	 1031	 1065	 1028	 1021	 1031	996.3	942.2	879.0	781.0	695.3	600.5	532.8	487.4	435.4	343.8	272.2	233.7	197.7	161.5	135.4	103.2	85.57	93.14
470.0	271.0	365.5	495.1	491.0	621.5	811.4	925.9	 1005	 1049	 1048	 1068	 1094	 1198	 1318	 1317	 1397	 1264	 1155	 1066	960.3	897.5	896.8	913.1	909.1	921.2	964.2	949.0	980.8	989.9	963.9	963.6	941.5	958.1	923.4	916.0	844.3	739.4	663.5	571.4	509.8	457.6	429.6	375.2	300.2	249.7	208.5	175.0	138.6	120.6	95.72	78.68
475.0	220.2	251.8	437.2	511.2	582.0	672.4	889.4	831.4	953.5	986.3	980.6	 1098	 1128	 1194	 1273	 1267	 1195	 1147	977.1	910.0	853.8	792.9	837.8	847.4	848.7	853.0	871.2	881.4	897.0	920.9	884.3	883.9	883.3	868.0	835.9	806.0	703.9	635.2	560.1	488.9	449.6	402.7	390.4	307.8	253.8	220.1	190.3	154.5	128.8	107.9	81.19
480.0	170.2	319.0	390.1	483.5	540.1	631.2	749.8	826.0	836.8	942.2	922.2	 1011	 1115	 1107	 1181	 1225	 1136	 1026	932.8	852.7	788.3	761.6	779.0	794.5	768.1	761.7	780.6	825.6	832.3	817.1	832.7	819.6	832.2	826.4	792.4	736.5	687.2	615.2	544.2	486.4	420.3	385.5	366.5	332.6	271.5	221.0	185.9	162.7	133.6	116.3	94.34
485.0	244.6	256.6	331.4	546.5	543.1	664.3	714.9	745.2	824.8	809.0	877.0	959.1	 1005	 1121	 1122	 1173	 1050	 1003	866.2	832.6	737.7	708.3	735.5	719.0	725.3	724.1	747.3	758.0	765.7	755.9	768.2	770.5	776.7	754.5	741.1	710.0	639.3	597.1	518.2	472.8	428.5	372.0	342.0	324.2	294.3	240.0	201.6	176.0	147.7	125.4	107.2
490.0	161.1	310.8	349.3	471.8	525.4	616.4	602.6	768.7	724.8	818.1	892.8	885.1	947.3	 1011	 1036	 1057	 1024	931.7	814.4	751.4	728.8	672.5	681.0	700.3	642.3	670.4	695.4	681.2	715.5	703.8	714.2	715.6	722.1	719.5	705.4	672.0	621.4	566.9	497.4	457.0	413.5	372.0	330.7	307.6	296.6	260.5	200.5	176.4	157.2	133.6	110.9
495.0	223.9	257.5	377.9	361.9	437.2	502.6	586.0	664.7	720.6	740.6	809.8	815.4	877.0	930.9	989.5	 1007	986.6	882.6	794.2	701.6	638.2	649.0	623.5	636.2	641.0	630.4	631.9	641.8	668.6	648.9	654.6	655.8	657.5	661.7	657.9	622.1	560.0	527.6	488.2	425.8	390.0	354.2	322.5	296.0	269.7	263.2	226.7	187.1	167.0	139.0	117.6
500.0	168.6	181.9	269.8	361.1	393.2	515.7	569.1	709.0	666.8	670.0	736.0	786.1	837.5	878.9	919.0	878.2	897.6	818.5	753.1	662.2	600.7	584.9	587.1	574.9	583.7	571.3	571.1	585.2	577.7	593.3	576.6	612.3	614.6	604.6	586.8	587.8	545.3	489.1	458.4	411.4	362.6	335.7	311.1	283.1	245.2	251.7	232.2	192.4	169.1	146.9	120.4
505.0	200.4	205.7	215.0	333.9	415.7	471.9	513.1	542.7	594.8	628.2	633.1	736.6	763.4	815.0	814.5	843.7	816.1	739.1	687.1	642.1	558.5	560.4	529.1	524.4	512.5	530.8	523.8	542.4	537.6	548.4	541.1	559.0	558.3	567.3	551.2	539.0	485.6	459.0	409.9	381.5	350.9	315.2	299.5	277.0	246.4	236.0	235.8	201.9	166.9	138.0	126.7
510.0	193.0	188.6	292.2	288.5	353.7	385.7	498.8	516.9	538.0	591.4	602.4	666.0	704.6	778.0	790.3	776.0	738.5	690.1	626.8	579.5	522.1	496.9	482.7	476.5	489.9	479.3	496.3	479.6	492.9	501.2	492.9	502.3	490.7	514.0	503.9	481.8	454.6	408.4	391.3	359.3	327.7	288.1	282.7	242.9	233.2	214.0	201.9	202.8	179.4	153.7	132.1
515.0	126.4	191.7	209.0	261.0	282.8	377.6	466.0	485.2	539.9	577.3	542.8	603.5	614.4	666.7	644.1	718.3	718.1	616.8	581.7	483.8	517.5	457.3	439.3	443.8	427.3	430.5	446.4	439.3	434.8	438.1	454.2	456.7	466.6	462.7	447.4	441.2	408.9	379.5	355.3	335.8	303.6	283.1	266.8	245.8	213.6	199.3	195.8	187.6	178.6	150.9	124.5
520.0	121.3	171.4	212.4	195.2	288.1	367.4	388.8	455.3	456.3	461.2	518.4	559.8	593.3	600.3	648.8	618.9	608.7	583.2	534.5	503.8	441.5	414.8	395.8	394.0	398.9	393.3	399.8	384.5	392.1	389.0	396.8	402.0	426.2	430.2	422.2	404.3	375.2	333.9	329.0	307.3	284.9	262.1	254.2	230.6	208.4	190.9	173.1	169.3	161.6	157.1	127.5
525.0	109.8	188.1	179.1	193.0	241.4	315.8	309.2	386.4	425.7	440.4	427.4	467.4	500.3	551.2	617.6	523.5	546.6	522.0	444.9	435.4	405.6	397.1	352.1	356.0	352.4	353.5	339.5	352.8	352.6	358.3	355.3	348.0	370.1	376.7	379.2	351.4	354.7	312.4	305.6	277.7	262.9	239.2	223.3	209.0	190.7	179.2	165.3	154.0	146.1	147.6	134.7
530.0	125.1	137.7	151.1	205.3	176.3	208.4	273.9	342.7	386.7	399.5	440.6	455.7	461.7	498.6	532.8	486.8	477.7	475.9	421.7	401.7	331.5	352.8	321.2	317.7	327.6	309.0	322.1	317.1	327.3	318.1	330.6	324.4	328.8	330.1	343.7	342.4	333.0	280.4	272.3	253.2	229.9	223.2	204.0	185.0	187.0	169.7	155.4	143.3	131.4	126.5	131.2
535.0	120.2	145.7	157.2	212.8	266.5	297.1	303.9	296.5	323.7	364.4	379.6	449.9	416.1	433.2	464.0	456.2	494.9	405.3	375.1	350.2	312.9	293.9	304.2	298.8	279.6	271.2	266.0	282.8	292.8	296.6	292.1	296.8	288.9	305.9	303.3	305.3	280.2	251.9	234.0	231.2	213.1	211.5	188.8	178.6	165.6	150.5	139.0	125.1	123.4	112.0	118.4
540.0	124.2	111.3	104.4	137.4	171.9	256.6	281.6	295.6	282.8	361.5	309.8	346.7	390.7	415.0	455.6	443.4	423.9	383.0	334.5	320.2	275.3	293.0	262.6	244.8	253.6	238.4	226.8	244.0	253.1	253.9	251.7	259.7	272.0	279.4	260.9	258.5	249.5	234.4	215.3	208.6	193.2	184.6	172.1	161.3	154.5	142.8	133.1	121.5	114.6	104.0	103.5
545.0	99.63	74.93	134.4	177.2	176.6	183.4	218.7	278.8	291.6	280.4	310.7	338.9	356.9	386.6	417.5	503.6	381.1	322.7	307.5	275.8	253.2	241.7	232.7	226.6	222.5	209.5	230.1	219.6	224.4	221.0	224.5	229.5	238.7	229.8	229.1	226.3	216.3	214.6	200.6	184.8	170.6	160.0	154.6	138.5	133.8	125.0	124.8	107.1	103.8	96.40	94.22
550.0	108.9	64.31	115.9	125.9	188.9	165.1	213.7	225.6	207.7	235.4	295.8	303.7	311.9	328.4	383.9	615.8	415.8	321.8	287.3	251.2	227.4	231.9	228.5	208.4	204.9	194.7	197.7	206.2	212.7	202.4	200.5	209.0	205.0	212.1	214.4	212.3	208.6	184.9	175.1	165.3	159.2	150.0	139.8	138.3	119.9	122.2	112.0	107.4	98.57	90.86	81.88
