Sample:	'SLABO1-5-5-320
File name:	2H2.FD3
Run Date:	16:33:19, 08/17/2022
Operator:	Administrator
Comment:	'

Instrument
Model:	F-7000 FL Spectrophotometer
Serial Number:	2354-007
ROM Version:	5J14000 06

Instrument Parameters
Measurement type:	3-D Scan
Data mode:	Fluorescence
EX  Start WL:	200.0 nm
EX  End WL:	450.0 nm
EX Sampling Interval:	5.0 nm
EM  Start WL:	280.0 nm
EM  End WL:	550.0 nm
EM Sampling Interval:	5.0 nm
Scan speed:	12000 nm/min
EX Slit:	5.0 nm
EM Slit:	5.0 nm
PMT Voltage:	700 V
Response:	Auto 
Corrected spectra:	Off
Shutter control:	On
Contour interval:	25.000

Peak integration
Integration method:	Rectangular
Sensitivity:	1
Threshold:	1.000

Peaks
No.	ApexEX/EM(nm)	Height(Data)
1	210.0/395.0	585.9
2	210.0/460.0	428.4
3	210.0/535.0	158.7
4	215.0/510.0	236.7
5	215.0/525.0	196.5
6	225.0/310.0	893.6
7	225.0/510.0	335.7
8	230.0/340.0	 1270
9	230.0/370.0	946.7
10	230.0/380.0	939.2
11	230.0/410.0	945.0
12	230.0/525.0	267.5
13	230.0/545.0	162.0
14	235.0/365.0	923.6
15	235.0/390.0	910.4
16	235.0/435.0	849.1
17	240.0/385.0	917.8
18	240.0/405.0	948.8
19	240.0/420.0	956.2
20	245.0/395.0	943.1
21	245.0/410.0	949.9
22	250.0/425.0	982.1
23	255.0/410.0	956.8
24	255.0/435.0	937.8
25	260.0/400.0	945.0
26	260.0/430.0	962.2
27	260.0/440.0	982.6
28	265.0/410.0	982.1
29	270.0/420.0	 1046
30	270.0/440.0	991.9
31	275.0/305.0	962.0
32	275.0/405.0	 1011
33	275.0/425.0	 1028
34	280.0/310.0	 1193
35	280.0/345.0	 1140
36	280.0/360.0	 1064
37	280.0/400.0	991.7
38	280.0/415.0	 1009
39	280.0/440.0	963.9
40	285.0/315.0	 1170
41	285.0/380.0	981.6
42	285.0/420.0	 1000
43	305.0/340.0	668.8
44	305.0/400.0	910.9
45	305.0/430.0	875.6
46	310.0/345.0	635.2
47	310.0/405.0	940.9
48	315.0/355.0	601.2
49	320.0/360.0	639.2
50	320.0/410.0	932.7
51	325.0/365.0	710.5
52	325.0/420.0	928.5
53	330.0/370.0	738.0
54	335.0/380.0	750.0
55	340.0/385.0	732.7
56	345.0/390.0	732.6
57	350.0/395.0	709.2
58	355.0/405.0	706.7
59	360.0/285.0	9.927
60	360.0/410.0	696.9
61	365.0/415.0	678.7
62	370.0/295.0	10.53
63	370.0/425.0	653.0
64	375.0/310.0	13.45
65	380.0/290.0	9.294
66	390.0/330.0	13.97
67	410.0/300.0	6.932
68	420.0/315.0	7.041
69	425.0/500.0	170.4
70	440.0/515.0	122.2
71	445.0/345.0	8.364
72	445.0/525.0	105.2

Data Points
	200.0	205.0	210.0	215.0	220.0	225.0	230.0	235.0	240.0	245.0	250.0	255.0	260.0	265.0	270.0	275.0	280.0	285.0	290.0	295.0	300.0	305.0	310.0	315.0	320.0	325.0	330.0	335.0	340.0	345.0	350.0	355.0	360.0	365.0	370.0	375.0	380.0	385.0	390.0	395.0	400.0	405.0	410.0	415.0	420.0	425.0	430.0	435.0	440.0	445.0	450.0
280.0	57.38	70.92	60.78	73.18	49.78	52.01	43.96	17.18	17.22	44.89	44.36	58.27	46.95	16.25	22.73	 1824	9999.9	 3801	104.4	16.72	18.03	16.79	16.12	12.25	9.996	10.36	6.888	6.512	8.669	6.525	8.847	9.282	6.773	6.224	7.960	4.479	5.258	4.578	3.444	4.161	2.649	3.005	3.415	2.372	2.867	2.466	1.495	1.938	1.879	2.281	1.989
285.0	292.6	209.3	153.0	215.8	211.2	187.1	111.2	52.24	44.94	75.11	104.2	112.9	168.5	106.6	76.06	169.4	 4530	9999.9	9999.9	690.2	31.71	29.36	23.41	17.30	12.81	9.456	9.544	7.876	8.606	9.227	8.437	9.239	9.927	8.651	5.693	8.048	5.731	4.631	5.078	4.493	3.215	3.154	2.627	2.856	3.777	3.914	2.414	3.449	2.313	2.609	3.501
290.0	357.6	362.8	265.4	314.4	320.5	355.8	255.0	138.8	81.50	103.4	124.2	145.7	229.9	312.3	206.4	133.5	417.6	9999.9	9999.9	9999.9	926.5	38.66	32.48	25.05	18.37	15.11	11.23	13.87	11.61	8.803	7.872	8.478	8.428	8.413	8.617	7.366	9.294	6.647	4.636	5.108	5.214	5.265	4.124	3.615	3.075	2.598	3.754	2.818	3.969	3.893	3.584
295.0	611.6	491.8	508.0	549.6	534.4	609.4	420.5	213.4	130.2	176.9	169.8	203.1	225.7	386.3	532.1	322.1	256.1	823.6	9999.9	9999.9	9999.9	 1184	43.56	42.25	35.83	23.93	20.62	15.28	14.79	11.79	9.954	9.710	9.679	9.233	10.53	10.06	7.992	5.834	6.984	5.452	5.141	5.942	5.275	5.545	4.104	4.586	2.624	3.686	4.570	4.024	4.290
300.0	790.6	506.9	557.2	586.1	667.9	662.7	451.6	291.8	211.7	159.7	209.9	226.8	293.9	341.2	622.6	716.7	427.2	367.3	818.1	9999.9	9999.9	9999.9	 1255	54.08	49.43	35.45	27.24	18.49	16.24	14.58	11.09	13.49	13.43	10.66	8.934	9.497	9.180	7.228	8.135	6.297	5.096	6.337	6.932	4.151	4.672	5.380	5.713	3.756	4.252	5.071	3.563
305.0	696.9	811.6	718.8	669.0	718.3	682.7	668.9	452.1	264.4	247.2	272.3	288.7	354.3	396.9	545.0	962.0	851.5	476.1	307.2	804.5	9999.9	9999.9	9999.9	 1443	73.48	53.29	41.71	33.88	23.35	18.31	14.51	14.25	10.53	12.65	13.07	10.34	8.666	8.091	7.810	6.324	7.998	7.322	6.021	4.608	5.918	4.221	5.190	5.194	5.414	5.898	6.530
310.0	 1066	823.7	618.8	712.2	804.7	893.6	772.7	520.0	322.0	261.6	327.1	356.7	405.0	472.3	577.3	832.1	 1193	743.5	391.6	248.1	769.4	9999.9	9999.9	9999.9	 1505	85.16	52.56	46.24	33.47	23.54	18.61	15.89	15.29	12.34	13.09	13.45	8.620	7.975	7.285	7.801	7.232	7.025	6.815	6.530	6.647	5.769	6.152	5.885	4.258	4.702	4.806
315.0	805.5	714.8	693.3	641.7	802.1	717.8	850.5	557.6	441.6	383.9	381.0	440.1	476.8	563.3	646.9	798.1	982.6	 1170	604.1	284.7	204.3	762.2	9999.9	9999.9	9999.9	 1294	76.74	64.52	47.89	32.60	26.03	22.89	19.15	15.88	16.05	11.68	10.86	10.30	9.794	8.328	8.323	7.713	5.700	5.689	7.041	5.122	6.240	5.587	6.505	5.331	5.421
320.0	662.8	667.5	629.8	807.6	827.8	995.6	840.1	676.0	452.0	429.8	444.2	528.3	519.7	628.5	731.9	899.6	 1011	 1055	 1040	456.9	216.4	192.3	783.9	9999.9	9999.9	9999.9	 1303	91.48	62.57	53.30	39.07	27.08	22.34	19.91	15.97	15.03	13.03	13.47	11.72	9.153	7.817	8.808	8.042	8.216	5.273	5.704	6.721	6.024	6.098	6.086	5.759
325.0	726.6	668.4	607.4	691.7	803.3	 1019	 1152	844.6	576.4	525.0	435.6	588.1	596.7	662.9	830.4	992.2	 1055	935.6	 1004	819.0	317.9	192.5	188.6	795.8	9999.9	9999.9	9999.9	 1415	106.7	69.90	53.31	44.75	27.92	21.00	18.49	14.43	16.30	11.68	10.27	9.262	8.642	8.302	8.438	6.920	6.535	6.058	6.414	5.903	5.525	7.741	6.783
330.0	595.8	768.4	617.6	705.9	754.6	 1051	 1257	917.7	639.2	501.5	487.8	580.3	622.8	682.2	916.8	 1039	 1090	 1046	848.7	909.7	641.3	253.4	177.4	191.4	767.4	9999.9	9999.9	9999.9	 1374	111.6	81.24	67.98	44.79	30.22	25.31	22.00	17.53	11.18	13.97	12.17	11.06	8.221	8.218	8.053	7.143	6.729	5.794	5.812	6.516	7.536	6.939
335.0	537.0	617.5	617.2	723.1	809.8	 1141	 1266	 1102	678.9	587.9	539.4	590.6	642.6	697.8	934.6	 1078	 1081	 1071	888.8	675.7	780.4	485.9	209.4	166.3	183.0	778.2	9999.9	9999.9	9999.9	 1466	111.8	86.09	59.50	44.52	33.12	23.56	19.68	16.29	11.20	10.48	9.372	10.06	9.192	7.577	7.203	7.541	7.361	5.468	6.569	7.157	8.177
340.0	457.0	691.6	666.7	711.0	921.1	 1152	 1270	 1061	724.2	571.4	521.0	588.4	659.5	720.1	903.6	 1060	 1137	 1062	898.7	699.5	551.8	668.8	369.7	205.4	160.2	180.7	786.2	9999.9	9999.9	9999.9	 1645	120.3	89.31	63.35	46.51	33.47	25.65	17.07	14.92	11.66	13.17	8.656	10.08	7.528	6.594	6.666	5.883	6.839	7.443	7.631	7.414
345.0	437.3	596.3	573.6	648.8	762.6	 1137	 1222	 1041	778.7	610.3	617.8	608.4	634.1	737.1	905.5	 1065	 1140	 1045	925.7	715.8	487.7	509.0	635.2	330.6	194.1	182.6	189.5	779.0	9999.9	9999.9	9999.9	 1815	126.3	87.27	66.23	50.70	34.03	22.67	17.64	14.28	12.52	10.85	9.873	10.55	8.531	8.538	7.356	6.908	5.941	8.364	7.048
350.0	514.3	531.1	572.9	617.9	724.1	 1019	 1138	 1003	769.5	629.4	605.0	636.3	676.2	745.6	847.2	982.6	 1063	 1031	887.3	717.6	541.7	444.1	530.3	585.6	314.2	226.0	186.6	196.1	788.3	9999.9	9999.9	9999.9	 1846	134.2	90.42	64.36	44.52	34.69	24.55	19.12	14.57	11.36	10.16	10.02	8.814	9.121	7.489	7.213	6.989	7.677	7.656
355.0	459.0	564.0	614.3	687.4	748.9	928.2	 1132	913.3	749.7	649.9	651.3	667.5	646.7	753.5	859.6	 1005	 1038	 1035	942.0	736.5	591.7	476.1	435.5	601.2	560.3	305.2	232.7	213.4	214.5	791.7	9999.9	9999.9	9999.9	 1995	131.2	87.19	63.97	49.46	28.15	22.97	17.78	14.17	12.63	9.595	9.241	8.587	8.679	7.038	6.895	7.118	6.851
360.0	504.5	369.1	559.9	661.9	666.2	947.3	 1011	903.4	744.3	682.0	672.0	681.4	730.7	715.3	849.6	955.0	 1064	996.5	918.2	753.2	616.0	536.2	472.8	474.0	639.2	530.3	308.6	253.6	226.1	218.0	793.4	9999.9	9999.9	9999.9	 1888	130.3	86.65	60.37	46.63	30.58	19.11	15.93	11.91	10.02	11.11	7.603	7.949	8.529	7.763	7.917	7.111
365.0	483.0	476.1	523.9	578.0	605.5	895.9	883.1	923.6	871.6	743.4	696.7	664.8	735.0	767.6	884.4	972.3	 1006	991.0	934.4	807.9	658.3	601.9	543.2	502.6	532.0	710.5	508.5	330.4	267.8	227.8	212.1	793.2	9999.9	9999.9	9999.9	 2136	123.4	87.14	63.41	36.49	30.14	19.39	16.04	13.65	11.48	9.960	7.618	7.709	7.293	8.489	7.219
370.0	440.5	471.5	577.7	596.4	710.4	816.8	946.7	869.0	803.0	799.1	690.9	700.5	712.5	764.3	891.8	926.8	984.3	936.9	910.4	759.6	675.8	634.0	610.4	583.7	557.5	620.6	738.0	472.1	352.1	279.6	226.4	221.1	784.8	9999.9	9999.9	9999.9	 2088	118.8	73.10	53.66	35.36	30.60	19.22	17.03	10.79	10.41	9.195	9.567	9.142	6.732	8.465
375.0	490.0	517.8	562.4	533.1	640.6	821.6	906.7	803.0	830.3	774.8	714.7	740.8	777.9	828.4	861.2	939.0	959.4	952.9	926.4	810.7	707.6	709.4	663.2	654.1	609.7	576.5	689.0	704.5	456.6	349.5	265.3	227.5	210.9	795.2	9999.9	9999.9	9999.9	 2261	121.6	78.76	48.69	38.89	29.94	18.31	15.57	12.99	9.425	7.738	9.285	8.036	5.561
380.0	476.6	448.1	461.6	578.1	634.7	759.1	939.2	846.6	803.8	782.7	801.6	779.4	804.6	767.9	901.9	902.7	976.9	981.6	901.7	804.1	767.6	746.4	727.7	713.8	650.3	646.4	617.0	750.0	652.2	426.7	340.9	261.5	209.5	195.1	790.4	9999.9	9999.9	9999.9	 2012	103.5	74.26	52.38	35.38	25.05	18.19	13.65	12.23	10.79	9.230	9.310	8.016
385.0	425.8	484.0	511.7	528.4	681.0	791.9	835.3	870.4	917.8	865.5	789.1	791.6	821.1	850.8	906.5	912.0	963.0	966.7	928.4	860.6	815.4	795.1	764.7	762.6	741.9	733.8	691.2	654.7	732.7	605.8	400.8	321.8	244.9	196.7	201.2	779.8	9999.9	9999.9	9999.9	 2097	99.89	70.96	51.08	34.29	20.88	18.13	14.78	12.13	10.20	7.099	8.860
390.0	365.8	380.6	516.8	496.4	596.2	738.2	881.1	910.4	859.7	896.0	893.5	743.0	792.8	849.3	906.6	918.7	926.3	943.2	935.7	865.9	816.2	822.3	810.1	796.2	814.3	757.4	754.9	685.3	667.7	732.6	552.5	385.0	297.8	249.7	192.5	193.5	769.8	9999.9	9999.9	9999.9	 2010	96.17	64.60	45.42	31.67	22.10	15.32	12.79	9.088	9.146	9.178
395.0	265.4	289.1	585.9	493.3	655.8	758.7	871.3	833.3	889.4	943.1	923.8	851.1	792.1	869.1	920.6	962.5	981.2	969.5	924.7	884.4	849.1	853.1	852.8	861.1	841.5	822.0	779.0	744.4	671.9	683.4	709.2	499.3	372.4	297.8	242.5	193.7	201.7	760.1	9999.9	9999.9	9999.9	 2036	95.66	65.18	41.53	30.51	22.56	16.75	11.78	11.97	9.443
400.0	337.7	494.2	546.1	537.4	641.6	754.4	814.4	794.0	892.1	911.1	895.2	829.0	945.0	902.5	898.6	982.2	991.7	962.2	926.2	881.8	896.8	910.9	887.0	892.9	899.0	873.7	854.8	776.3	708.1	672.7	694.8	646.7	475.8	373.0	298.3	236.8	191.7	183.9	758.5	9999.9	9999.9	9999.9	 1790	80.35	58.01	40.99	30.95	18.60	14.89	12.58	9.481
405.0	337.6	442.5	474.8	557.2	646.6	807.1	939.5	831.4	948.8	883.4	908.8	912.4	887.7	900.0	968.2	 1011	989.8	934.7	927.8	906.9	895.2	894.3	940.9	867.7	920.0	919.5	838.9	831.8	783.9	702.5	663.0	706.7	607.9	440.7	349.2	294.5	216.3	168.4	182.7	741.2	9999.9	9999.9	9999.9	 1619	78.45	53.78	37.93	25.62	18.88	14.50	11.59
410.0	270.6	358.6	520.8	516.7	595.3	756.2	945.0	896.9	927.7	949.9	921.0	956.8	922.7	982.1	964.1	988.4	983.3	985.3	956.6	908.5	896.6	913.8	931.1	894.6	932.7	906.0	876.9	858.4	825.4	742.3	696.9	660.8	696.9	574.2	421.0	340.2	264.6	206.2	159.7	168.3	746.3	9999.9	9999.9	9999.9	 1496	73.45	50.76	36.09	25.59	17.49	11.79
415.0	401.2	458.0	490.7	610.5	678.6	723.2	858.2	877.7	860.8	855.0	918.2	927.9	946.0	908.1	980.1	 1004	 1009	982.0	949.0	926.8	882.4	879.4	911.5	910.9	913.6	911.9	903.5	869.5	827.4	773.4	718.2	663.4	657.1	678.7	530.4	387.7	314.0	242.3	185.2	140.5	157.4	732.1	9999.9	9999.9	9999.9	 1506	72.50	50.45	32.59	23.39	16.08
420.0	327.5	391.7	426.7	659.9	654.8	757.7	757.2	879.3	956.2	875.4	909.5	874.4	 1010	 1021	 1046	991.9	973.8	 1000	912.7	921.8	879.1	892.3	894.7	911.7	926.2	928.5	884.3	890.0	847.7	790.4	733.2	686.3	641.9	659.5	641.6	448.8	345.3	280.2	230.0	175.7	132.5	148.4	725.6	9999.9	9999.9	9999.9	 1335	67.11	43.14	30.18	23.84
425.0	221.7	365.0	376.9	559.8	639.8	776.3	780.6	801.7	940.8	940.0	982.1	932.6	914.3	980.0	949.5	 1028	996.2	954.8	918.4	838.3	860.9	848.2	862.5	886.5	895.9	916.9	912.7	895.5	832.9	814.6	764.2	710.6	646.4	636.1	653.0	567.7	395.6	307.5	255.8	203.2	158.7	124.0	138.8	707.9	9999.9	9999.9	9999.9	 1166	60.37	41.69	25.81
430.0	337.5	333.1	451.7	600.6	543.2	680.3	751.3	846.0	918.7	903.0	915.2	915.4	962.2	931.0	946.7	 1019	979.5	946.3	874.2	860.4	825.7	875.6	828.1	868.5	853.4	871.1	874.6	866.3	844.7	818.0	767.9	734.2	684.8	642.1	602.1	612.3	484.8	359.6	284.1	226.9	176.4	142.3	112.6	128.9	700.2	9999.9	9999.9	9999.9	 1028	61.54	41.08
435.0	332.2	360.4	427.8	508.1	536.4	747.1	796.1	849.1	834.5	848.0	892.3	937.8	913.6	976.9	974.0	 1002	927.3	908.2	869.9	832.9	842.2	832.6	811.2	827.1	858.5	843.8	863.7	835.7	842.5	805.3	760.4	731.8	679.2	656.6	600.3	577.6	557.8	425.3	315.0	251.7	204.4	157.5	122.9	101.2	127.8	695.6	9999.9	9999.9	9999.9	 1048	58.10
440.0	349.8	427.6	374.8	445.6	648.2	673.2	771.8	818.2	886.4	889.0	892.0	895.9	982.6	939.0	991.9	943.8	963.9	932.0	844.9	800.7	809.1	794.3	824.9	819.9	828.8	834.7	851.0	837.4	833.1	787.8	763.0	728.2	690.6	668.0	619.3	550.6	542.7	489.5	370.2	273.5	224.9	181.5	142.9	113.2	89.13	117.6	695.2	9999.9	9999.9	9999.9	917.6
445.0	264.3	339.0	401.3	363.8	555.6	584.1	758.1	779.9	768.5	803.4	869.2	873.4	928.9	960.2	968.7	913.9	930.9	850.7	835.5	789.3	766.9	748.2	779.6	781.2	782.0	808.3	820.9	806.1	779.2	782.6	756.0	698.1	689.6	683.7	623.1	558.2	489.9	488.7	421.0	296.8	239.2	193.4	154.1	127.3	98.77	89.88	114.1	694.4	9999.9	9999.9	9999.9
450.0	298.6	305.4	352.3	389.3	443.6	575.3	741.0	765.5	770.5	809.4	861.5	812.0	880.7	967.6	983.8	889.2	938.4	813.7	777.2	761.8	755.0	753.7	733.0	760.8	752.0	775.0	778.4	771.0	751.7	755.0	726.0	680.7	689.1	661.3	621.7	561.8	496.4	432.3	441.0	357.2	263.6	204.8	179.9	140.1	113.3	97.53	77.51	108.2	683.6	9999.9	9999.9
455.0	232.1	322.2	395.4	425.1	515.3	559.1	642.4	748.5	731.1	792.5	850.2	841.9	882.1	862.4	906.8	881.7	863.3	835.7	742.9	713.1	684.2	710.0	687.7	716.3	737.3	702.3	725.6	738.9	731.4	715.9	683.1	672.6	660.8	656.1	605.3	556.1	478.6	423.4	392.4	384.8	291.8	232.1	185.3	156.5	129.5	103.1	81.82	71.00	104.4	683.1	9999.9
460.0	234.2	242.9	428.4	295.4	532.4	574.3	658.7	720.8	656.3	788.1	770.6	755.2	842.9	823.7	827.0	828.3	847.7	806.2	719.2	667.2	670.1	671.5	659.9	669.7	671.3	669.0	667.3	677.1	679.2	657.4	654.7	642.8	624.4	602.7	602.8	535.8	479.8	415.8	380.0	353.1	338.8	251.2	191.7	158.6	141.8	115.0	89.05	71.55	68.16	99.71	680.9
465.0	242.9	288.3	427.2	432.4	445.0	486.9	582.3	576.5	639.1	675.6	760.6	784.8	790.0	820.8	808.1	820.6	770.1	721.2	680.7	664.2	641.4	607.8	596.5	609.1	618.5	626.1	634.0	643.9	629.5	638.9	614.0	602.9	595.6	580.0	564.1	508.4	464.2	404.4	360.1	324.0	324.5	284.9	217.7	177.7	142.9	122.9	105.4	77.45	77.25	63.16	100.7
470.0	194.1	240.9	315.2	406.9	420.2	513.7	492.5	605.7	578.3	688.6	708.4	712.4	743.7	735.2	756.6	762.1	788.2	673.8	652.9	615.8	571.9	570.4	585.6	543.3	561.1	571.4	583.4	592.5	593.8	581.7	573.7	554.5	556.0	538.5	537.2	494.6	446.7	396.9	348.6	310.5	290.9	282.5	233.7	180.8	159.7	130.3	111.0	89.45	84.21	66.31	60.05
475.0	207.4	260.1	295.4	350.4	340.4	384.3	493.0	523.5	586.5	639.7	591.0	645.0	701.4	659.2	730.8	723.3	694.1	633.8	609.2	573.9	535.3	530.8	525.2	537.7	520.7	519.5	533.7	537.0	516.4	534.8	521.4	527.9	520.0	508.5	483.9	470.9	432.2	379.4	352.3	298.9	264.9	257.6	248.6	205.1	153.8	140.9	113.6	94.17	82.67	71.50	60.71
480.0	232.3	207.2	263.7	309.0	267.4	445.8	442.7	514.1	563.6	567.6	597.5	617.4	616.0	667.8	652.7	656.9	659.0	605.1	542.9	539.0	514.8	476.2	472.8	469.6	496.4	497.4	496.2	475.6	493.6	506.5	498.9	491.1	487.4	475.2	449.0	448.1	407.0	354.9	321.8	293.3	258.9	236.2	230.6	220.6	167.9	144.5	121.0	106.2	84.75	74.59	59.55
485.0	176.6	237.7	264.5	268.6	365.1	377.8	429.7	437.2	530.6	535.8	561.5	603.7	594.9	636.5	601.4	621.5	629.5	579.1	516.7	484.8	458.5	450.4	434.6	459.1	451.6	463.6	466.6	468.4	464.2	450.4	444.7	448.0	452.0	457.5	428.9	428.3	396.1	348.2	317.7	286.2	258.8	225.0	205.1	208.2	194.0	148.5	127.6	106.6	88.43	84.39	69.17
490.0	211.4	181.3	236.6	242.4	304.7	330.0	357.1	421.8	443.6	499.0	489.8	549.1	561.7	576.8	608.3	587.5	562.3	521.5	504.8	438.3	450.4	432.4	430.7	423.1	423.6	416.5	428.3	427.3	436.3	431.9	414.1	423.6	431.7	420.2	415.8	403.6	354.5	331.4	307.8	268.4	247.8	230.2	207.6	191.4	192.5	170.3	126.6	107.3	96.05	91.36	70.42
495.0	123.2	217.1	172.4	305.3	316.8	315.8	376.5	364.1	456.4	497.1	525.1	510.0	544.1	557.1	576.9	591.5	518.1	473.3	471.6	452.6	416.7	406.5	402.0	407.2	416.9	393.5	398.5	394.1	402.7	400.8	390.2	407.1	390.8	390.3	390.1	368.9	325.0	318.6	288.7	260.1	240.9	225.5	194.1	180.8	176.8	169.3	148.4	117.6	94.86	86.76	78.85
500.0	127.9	173.5	170.8	234.0	237.7	317.0	335.6	377.6	398.1	423.2	462.9	471.1	501.3	535.2	544.2	534.6	497.9	489.6	429.3	412.3	405.8	380.2	380.2	355.7	366.7	357.6	362.7	377.1	383.7	366.2	366.1	374.5	362.8	357.5	355.9	331.3	322.3	293.2	272.3	245.3	226.4	203.4	194.0	176.6	159.2	170.4	157.5	123.1	102.1	84.48	79.68
505.0	102.7	130.2	215.7	206.2	243.2	248.1	296.6	329.3	352.5	402.7	405.6	415.0	460.2	507.1	499.0	495.8	476.5	414.5	424.9	372.3	356.4	357.2	342.1	326.9	333.6	330.7	326.4	325.7	332.4	328.5	329.7	324.8	329.0	326.8	328.1	318.1	293.1	265.0	255.7	235.1	215.5	194.1	189.0	169.9	153.2	144.6	151.3	139.7	110.2	88.80	76.98
510.0	143.9	162.2	160.7	236.7	193.3	335.7	228.5	255.7	300.0	350.9	385.2	392.6	440.3	419.3	467.3	446.2	426.3	407.1	374.7	345.0	294.0	321.9	323.1	314.9	299.1	304.3	303.8	308.5	309.7	283.3	315.3	309.2	301.0	317.8	304.9	279.8	289.5	262.0	236.8	214.9	195.1	189.7	173.4	156.2	140.4	131.5	127.0	133.5	115.1	88.55	78.20
515.0	164.8	135.5	146.5	175.7	179.2	251.2	259.5	280.7	296.5	369.5	385.1	383.2	408.9	388.3	436.8	433.3	394.7	362.1	355.5	303.2	285.9	269.9	276.7	277.9	275.0	283.7	260.7	278.8	278.8	268.6	272.5	272.5	277.1	282.2	278.7	265.9	255.7	241.3	224.2	202.4	177.8	173.7	168.7	145.2	131.2	129.4	108.2	118.4	122.2	96.78	77.46
520.0	116.4	116.6	91.92	155.4	178.7	263.1	229.7	224.1	308.9	356.1	345.6	343.9	375.4	391.0	397.3	387.5	377.7	339.4	312.4	290.3	266.6	244.9	252.9	249.6	244.9	240.5	236.5	246.2	256.3	249.8	255.3	251.7	243.2	253.8	251.5	242.9	226.1	213.9	194.2	189.8	170.5	162.9	150.0	144.4	125.7	118.4	104.0	103.9	103.5	101.0	85.44
525.0	73.80	167.9	158.2	196.5	139.0	233.4	267.5	232.3	270.3	268.7	302.8	299.4	386.2	311.7	385.9	354.9	335.7	333.1	285.5	279.7	243.5	241.0	239.7	217.6	227.2	226.4	225.5	226.9	236.0	224.2	217.9	230.4	225.2	213.2	225.9	226.2	204.5	186.0	178.3	175.5	160.9	144.1	139.9	130.4	119.7	110.8	100.7	89.61	93.27	105.2	83.58
530.0	96.88	119.4	103.4	178.3	136.0	133.9	213.4	222.2	210.9	275.8	262.0	281.3	282.6	315.3	325.2	309.6	290.1	301.9	267.6	251.2	233.2	218.2	210.1	205.9	195.1	191.4	192.3	190.3	205.4	207.7	194.9	201.1	202.7	194.5	209.6	195.4	185.8	177.5	165.7	153.4	140.7	133.8	131.2	115.6	110.9	100.8	88.11	88.51	77.72	87.34	92.93
535.0	110.5	99.64	158.7	116.1	152.8	144.4	164.2	195.7	209.8	207.7	237.5	246.0	281.9	269.8	307.0	286.2	283.5	268.4	249.3	229.3	212.8	189.3	177.1	185.9	187.2	166.2	171.1	179.0	181.1	169.2	174.6	182.5	181.4	188.7	173.8	172.4	163.8	159.9	141.4	130.3	133.9	118.5	112.9	101.2	97.17	91.59	83.77	78.36	75.21	74.97	74.65
540.0	92.39	87.27	91.00	111.1	110.4	117.6	151.6	157.8	185.9	193.3	219.3	225.2	248.7	253.8	304.3	280.9	252.3	243.3	212.9	207.0	191.2	175.5	167.4	164.4	166.1	157.3	155.6	155.0	154.9	158.9	168.4	158.5	165.6	154.4	153.7	153.7	155.2	138.3	130.5	116.9	121.7	103.7	98.18	91.43	92.07	85.89	80.36	73.03	66.79	70.20	62.63
545.0	89.30	98.93	69.48	111.2	79.81	127.4	162.0	153.6	157.4	186.4	200.4	187.3	235.0	237.6	299.8	370.3	273.7	213.4	183.6	183.3	158.0	151.3	154.7	150.3	157.2	147.0	144.6	144.2	137.7	138.0	132.3	148.8	149.2	152.7	137.1	137.0	133.0	124.0	114.8	108.6	109.4	99.02	91.82	87.58	80.35	75.38	76.00	70.88	65.05	65.17	54.89
550.0	77.37	109.1	117.8	112.2	106.7	93.70	124.2	121.4	154.2	174.1	174.7	169.7	184.6	214.5	259.4	606.4	325.0	198.6	184.2	167.4	147.0	145.2	133.0	125.9	132.0	136.7	134.6	138.9	133.2	131.8	121.9	126.0	137.1	132.9	119.2	127.9	117.2	107.2	109.0	99.93	97.15	87.84	85.07	79.81	74.45	71.05	70.95	63.03	60.14	61.26	55.70
