Sample:	'SLABO1-5-5-320
File name:	2H3.FD3
Run Date:	16:46:06, 08/17/2022
Operator:	Administrator
Comment:	'

Instrument
Model:	F-7000 FL Spectrophotometer
Serial Number:	2354-007
ROM Version:	5J14000 06

Instrument Parameters
Measurement type:	3-D Scan
Data mode:	Fluorescence
EX  Start WL:	200.0 nm
EX  End WL:	450.0 nm
EX Sampling Interval:	5.0 nm
EM  Start WL:	280.0 nm
EM  End WL:	550.0 nm
EM Sampling Interval:	5.0 nm
Scan speed:	12000 nm/min
EX Slit:	5.0 nm
EM Slit:	5.0 nm
PMT Voltage:	700 V
Response:	Auto 
Corrected spectra:	Off
Shutter control:	On
Contour interval:	25.000

Peak integration
Integration method:	Rectangular
Sensitivity:	1
Threshold:	1.000

Peaks
No.	ApexEX/EM(nm)	Height(Data)
1	205.0/320.0	929.9
2	205.0/515.0	176.8
3	210.0/405.0	605.5
4	210.0/465.0	428.6
5	210.0/490.0	290.8
6	210.0/505.0	245.5
7	210.0/525.0	160.6
8	220.0/485.0	396.4
9	225.0/305.0	957.0
10	225.0/535.0	200.1
11	230.0/330.0	 1734
12	230.0/345.0	 1824
13	235.0/355.0	 1726
14	235.0/400.0	 1189
15	235.0/410.0	 1179
16	235.0/440.0	986.4
17	240.0/395.0	 1277
18	240.0/405.0	 1214
19	245.0/390.0	 1216
20	245.0/410.0	 1217
21	245.0/420.0	 1204
22	245.0/440.0	 1107
23	265.0/425.0	 1305
24	270.0/450.0	 1214
25	275.0/305.0	 1086
26	275.0/375.0	 1364
27	275.0/400.0	 1307
28	275.0/435.0	 1281
29	280.0/310.0	 1319
30	280.0/395.0	 1275
31	280.0/410.0	 1269
32	285.0/315.0	 1373
33	285.0/350.0	 1472
34	285.0/405.0	 1239
35	305.0/340.0	869.0
36	305.0/405.0	 1089
37	305.0/440.0	955.0
38	310.0/345.0	807.2
39	310.0/410.0	 1091
40	315.0/355.0	773.0
41	320.0/360.0	786.6
42	320.0/410.0	 1101
43	325.0/365.0	839.8
44	330.0/375.0	837.7
45	330.0/420.0	 1097
46	335.0/380.0	860.1
47	335.0/425.0	 1103
48	340.0/385.0	850.5
49	340.0/430.0	 1081
50	345.0/295.0	6.759
51	345.0/390.0	851.4
52	345.0/445.0	 1002
53	355.0/405.0	859.1
54	370.0/315.0	6.671
55	375.0/310.0	6.158
56	405.0/325.0	5.453
57	415.0/295.0	3.576
58	420.0/300.0	4.136
59	420.0/355.0	5.476
60	435.0/370.0	6.532
61	440.0/310.0	4.937
62	440.0/355.0	5.278
63	445.0/350.0	5.647

Data Points
	200.0	205.0	210.0	215.0	220.0	225.0	230.0	235.0	240.0	245.0	250.0	255.0	260.0	265.0	270.0	275.0	280.0	285.0	290.0	295.0	300.0	305.0	310.0	315.0	320.0	325.0	330.0	335.0	340.0	345.0	350.0	355.0	360.0	365.0	370.0	375.0	380.0	385.0	390.0	395.0	400.0	405.0	410.0	415.0	420.0	425.0	430.0	435.0	440.0	445.0	450.0
280.0	56.71	40.19	77.38	22.36	46.03	58.84	54.65	12.43	32.08	59.21	73.99	79.77	59.19	22.95	21.07	737.4	 4467	 1885	49.43	7.629	6.759	6.096	5.083	5.374	3.705	3.137	2.825	3.385	4.137	3.210	3.361	3.598	3.326	2.494	2.858	1.864	2.628	1.698	1.854	1.693	1.990	1.606	2.050	1.268	1.301	0.754	1.327	1.066	1.420	1.391	0.615
285.0	260.2	235.1	145.8	141.1	136.4	191.1	131.0	90.58	61.75	131.4	169.2	156.0	222.6	130.8	78.15	117.1	 1815	9999.9	 6763	378.4	14.29	12.86	10.06	6.649	7.005	4.052	4.907	3.492	4.310	3.871	3.505	4.041	4.111	2.470	2.325	3.935	2.796	2.166	2.246	1.865	2.757	2.195	1.094	2.012	2.042	1.555	1.881	1.791	1.528	1.206	1.316
290.0	482.4	453.8	362.7	366.6	415.8	351.5	215.1	150.2	126.0	175.0	246.9	216.6	257.5	359.4	215.7	157.5	236.3	 4203	9999.9	9999.9	500.7	17.91	14.12	11.85	9.302	5.925	5.875	4.967	3.178	4.756	3.664	3.682	4.739	4.264	2.921	2.548	2.300	2.951	1.483	2.948	3.163	2.379	2.091	2.429	2.430	1.493	1.923	2.263	2.882	2.706	1.877
295.0	618.2	654.2	413.1	503.4	598.7	523.4	487.9	246.9	185.3	218.9	244.7	271.0	250.1	397.5	557.0	345.5	275.5	455.2	 6261	9999.9	9999.9	646.5	14.00	15.69	15.01	10.10	6.793	6.946	5.436	6.759	4.168	4.385	5.035	5.039	3.819	3.922	2.040	3.221	2.248	2.321	2.817	3.246	2.676	3.576	2.434	2.731	2.004	3.246	2.493	2.959	3.165
300.0	698.5	744.2	622.4	633.6	745.1	771.0	608.2	331.6	267.3	242.7	285.2	313.0	330.3	354.0	747.8	764.6	442.1	327.9	561.9	 7505	9999.9	9999.9	656.2	25.18	20.36	17.41	10.81	8.672	5.974	4.079	5.662	4.391	5.343	4.946	4.052	3.324	4.303	2.654	2.922	3.545	2.789	2.523	2.647	3.180	4.136	2.695	2.394	3.426	3.506	4.578	3.344
305.0	736.6	834.3	748.0	697.1	764.4	957.0	718.8	476.4	328.5	340.4	317.8	351.1	388.0	458.6	571.7	 1086	913.8	505.4	312.5	609.4	 8017	9999.9	9999.9	707.8	23.88	16.47	16.64	11.34	8.087	7.225	7.659	4.941	5.919	5.383	4.567	3.601	3.227	3.050	2.916	3.508	3.817	2.808	3.096	2.193	3.081	3.661	3.725	3.264	3.599	4.012	3.920
310.0	764.4	847.4	614.2	841.8	756.8	934.4	775.2	602.9	369.3	402.1	398.4	413.6	427.5	549.9	670.6	883.3	 1319	841.3	416.4	246.2	633.6	 8638	9999.9	9999.9	746.2	27.19	20.67	17.37	11.58	9.415	7.792	5.783	5.019	4.923	4.338	6.158	4.377	3.891	4.513	2.760	3.808	3.684	3.499	3.214	3.383	3.599	2.611	3.419	4.937	4.630	4.481
315.0	747.2	910.6	693.7	719.0	806.9	838.8	953.3	616.2	455.8	421.3	496.2	497.3	556.0	611.9	796.7	953.0	 1077	 1373	710.6	334.2	220.8	647.5	9999.9	9999.9	9999.9	656.7	29.72	20.57	15.28	10.06	8.522	6.754	5.584	5.999	6.671	4.045	4.294	3.873	3.640	3.853	4.349	3.132	2.673	3.684	3.564	3.813	3.157	3.126	3.905	4.581	4.538
320.0	791.1	929.9	799.0	746.2	983.0	 1073	 1068	841.6	598.2	529.2	576.6	623.2	649.9	701.8	877.2	 1023	 1098	 1188	 1187	524.8	247.5	187.1	731.0	 9732	9999.9	9999.9	628.2	33.96	22.10	16.25	12.31	9.451	8.448	5.773	5.399	5.595	3.866	5.368	4.361	3.926	3.980	3.988	3.378	4.162	4.104	3.155	2.968	3.116	3.595	4.030	4.921
325.0	678.5	713.7	709.3	921.1	936.2	 1306	 1460	 1145	719.2	619.3	545.5	661.0	725.2	818.2	 1001	 1195	 1282	 1187	 1218	 1017	409.7	215.7	193.2	715.1	 9516	9999.9	9999.9	670.2	36.38	20.61	15.48	14.56	11.56	7.658	6.451	6.724	5.358	5.175	4.733	4.109	3.810	5.453	4.154	4.678	4.360	3.758	3.707	4.665	3.791	4.112	6.684
330.0	591.5	656.5	743.8	842.4	 1134	 1475	 1734	 1498	998.7	721.8	698.7	738.6	778.0	905.1	 1106	 1324	 1378	 1292	 1108	 1108	812.4	366.7	200.2	198.9	712.7	 8728	9999.9	9999.9	664.9	34.06	24.18	21.49	15.75	11.74	6.600	6.112	5.085	5.200	3.294	4.099	3.527	4.356	3.570	3.292	4.313	3.174	4.219	4.735	3.831	5.537	7.133
335.0	667.4	558.5	754.6	868.5	 1193	 1431	 1734	 1482	 1126	755.9	740.3	691.3	786.4	927.5	 1140	 1331	 1397	 1381	 1162	944.9	973.7	635.9	293.5	196.4	190.6	656.6	 9179	9999.9	9999.9	634.8	35.48	25.90	17.71	15.01	8.661	7.257	6.397	5.339	5.556	2.894	3.393	4.242	3.875	3.933	3.903	3.885	4.146	3.835	4.367	4.276	6.357
340.0	468.8	640.9	704.5	863.8	 1169	 1555	 1730	 1610	 1086	893.8	687.5	794.3	796.1	959.9	 1201	 1346	 1449	 1436	 1244	956.0	770.9	869.0	484.5	279.9	203.7	198.9	696.3	 8014	9999.9	9999.9	686.3	34.16	24.41	19.83	14.76	11.32	7.599	6.381	4.699	4.349	3.461	4.557	4.341	3.580	4.136	3.951	3.982	3.075	5.232	5.622	7.462
345.0	478.5	538.9	771.4	734.9	 1109	 1418	 1824	 1682	 1288	961.2	806.1	825.2	825.5	986.9	 1129	 1344	 1462	 1463	 1273	 1005	734.2	700.7	807.2	446.2	270.5	211.6	198.6	616.9	 8082	9999.9	9999.9	747.0	38.86	25.30	22.49	16.58	11.39	6.989	5.700	4.963	3.519	3.908	4.198	4.995	4.384	4.273	3.364	4.145	4.117	5.484	7.256
350.0	437.8	537.1	542.9	860.2	 1035	 1587	 1679	 1650	 1324	956.7	872.0	816.4	918.3	958.1	 1175	 1348	 1435	 1472	 1299	 1045	810.0	633.5	712.8	733.9	409.9	284.0	237.6	193.8	621.2	 7537	9999.9	9999.9	764.6	37.22	27.63	21.33	12.24	10.01	8.304	5.534	5.879	4.435	4.301	4.822	3.706	3.352	4.565	4.448	4.198	5.647	5.120
355.0	400.0	601.4	537.2	954.3	 1138	 1472	 1603	 1726	 1251	 1089	917.6	971.8	958.7	 1092	 1238	 1351	 1436	 1404	 1295	 1095	855.6	702.5	624.0	773.0	705.7	386.3	297.9	216.3	208.6	586.3	 7056	9999.9	9999.9	759.7	40.91	26.75	17.34	13.08	9.363	5.599	5.797	5.737	3.494	5.042	5.476	3.696	5.142	4.001	5.278	4.227	6.775
360.0	393.4	484.0	599.0	694.6	892.7	 1145	 1556	 1660	 1305	 1051	937.4	941.4	 1041	 1121	 1260	 1357	 1427	 1370	 1265	 1090	919.3	780.1	725.8	683.9	786.6	632.0	389.7	313.7	247.8	190.0	557.6	 7398	9999.9	9999.9	711.5	38.62	23.74	19.53	15.00	9.306	6.714	6.974	5.029	4.932	4.132	4.837	5.128	3.934	3.858	3.937	6.208
365.0	391.0	498.5	557.8	665.9	966.7	 1130	 1498	 1509	 1305	 1097	 1008	960.9	 1043	 1132	 1241	 1345	 1392	 1355	 1264	 1048	957.5	837.3	754.5	701.6	694.5	839.8	592.5	403.1	317.5	239.4	193.9	573.3	 7007	9999.9	9999.9	765.2	33.86	24.48	17.49	13.26	9.120	6.621	5.401	4.701	5.263	4.222	4.634	4.637	5.815	4.250	6.023
370.0	368.5	534.1	654.4	635.5	877.1	 1089	 1356	 1351	 1283	 1089	 1107	 1056	 1106	 1199	 1231	 1292	 1353	 1360	 1289	 1081	956.3	890.9	818.0	762.6	715.8	760.0	833.9	573.5	404.2	291.8	230.3	175.6	544.4	 6917	9999.9	9999.9	755.9	39.02	25.18	17.26	11.35	7.821	7.614	6.013	4.748	5.148	4.414	6.532	4.374	3.495	5.580
375.0	383.3	354.4	508.6	641.5	789.2	 1101	 1321	 1271	 1234	 1224	 1128	 1066	 1085	 1119	 1255	 1364	 1323	 1283	 1272	 1114	 1013	936.3	881.1	830.1	834.7	749.7	837.7	832.0	543.6	382.6	281.6	203.5	175.4	542.7	 6684	9999.9	9999.9	777.3	35.95	22.79	14.65	10.58	7.366	7.237	5.166	5.776	5.047	4.134	4.895	4.515	4.398
380.0	287.5	458.0	462.1	735.6	726.9	 1110	 1234	 1296	 1233	 1185	 1058	 1000	 1092	 1186	 1279	 1280	 1290	 1285	 1244	 1078	 1024	985.8	935.7	893.7	838.6	818.6	774.6	860.1	768.0	492.1	345.6	267.6	216.6	173.6	523.9	 6674	9999.9	9999.9	674.6	32.40	20.34	15.74	10.36	8.990	7.721	6.134	5.052	5.317	4.665	6.276	5.193
385.0	380.2	391.4	523.9	641.0	748.8	913.3	 1210	 1144	 1156	 1135	 1108	 1118	 1068	 1135	 1201	 1284	 1242	 1240	 1171	 1055	 1016	 1020	997.2	956.2	911.1	877.6	835.3	780.9	850.5	688.4	441.9	347.8	275.8	202.1	174.3	526.2	 5694	9999.9	9999.9	688.4	28.48	20.87	13.18	10.60	9.017	5.825	5.580	4.745	5.014	4.448	5.430
390.0	329.2	295.0	496.8	610.7	802.7	947.9	 1079	 1051	 1175	 1216	 1102	 1111	 1120	 1129	 1216	 1238	 1211	 1204	 1196	 1096	 1042	 1055	 1003	990.0	994.7	934.7	889.0	802.3	804.8	851.4	636.6	441.1	358.5	271.1	201.4	177.1	462.3	 5255	9999.9	9999.9	643.6	27.41	18.60	13.13	10.22	7.956	6.122	5.541	4.310	5.821	4.969
395.0	280.9	361.1	467.7	633.7	774.5	907.5	 1077	 1078	 1277	 1170	 1093	 1144	 1175	 1181	 1210	 1257	 1275	 1187	 1167	 1075	 1062	 1052	 1030	 1041	 1018	988.4	962.4	895.2	838.5	820.7	827.5	595.1	454.9	344.8	281.8	208.6	163.3	431.6	 4958	9999.9	9999.9	646.9	28.10	19.35	13.69	11.27	7.156	6.603	5.551	5.196	5.712
400.0	258.6	431.1	480.6	699.8	624.2	857.9	 1037	 1189	 1148	 1164	 1138	 1166	 1158	 1244	 1277	 1307	 1195	 1216	 1186	 1137	 1026	 1039	 1060	 1057	 1047	 1050	 1025	957.0	887.7	818.8	832.4	803.5	574.8	448.1	369.2	277.5	208.6	163.5	404.3	 4781	9999.9	9999.9	566.1	26.52	18.31	11.66	11.16	7.168	5.718	6.773	5.342
405.0	323.2	369.6	605.5	481.0	787.9	875.7	 1056	 1128	 1214	 1126	 1178	 1138	 1131	 1219	 1240	 1204	 1204	 1239	 1115	 1072	 1067	 1089	 1084	 1054	 1064	 1075	 1058	995.8	982.6	883.8	829.3	859.1	750.0	542.7	444.0	350.1	260.5	184.8	151.8	385.2	 4250	9999.9	9999.9	501.1	25.65	18.55	11.19	8.964	7.079	6.266	5.754
410.0	302.8	406.7	511.9	588.3	860.6	882.1	 1016	 1179	 1128	 1217	 1211	 1181	 1131	 1257	 1251	 1268	 1269	 1205	 1122	 1077	 1081	 1061	 1091	 1067	 1101	 1093	 1070	 1047	 1023	941.9	865.3	841.3	853.6	711.3	518.8	421.2	319.0	235.8	186.6	127.4	346.5	 4224	9999.9	9999.9	455.4	25.12	15.94	11.11	7.397	7.937	6.561
415.0	334.6	425.2	431.6	664.6	784.5	923.0	 1068	 1099	 1101	 1143	 1182	 1180	 1222	 1232	 1223	 1229	 1238	 1165	 1114	 1057	 1028	 1025	 1056	 1074	 1091	 1077	 1062	 1068	 1013	980.1	918.3	864.0	846.9	850.8	652.7	489.7	378.0	280.5	215.1	151.9	123.3	340.4	 4038	9999.9	9999.9	452.6	21.42	13.31	11.47	7.778	8.491
420.0	323.5	367.1	567.9	636.0	697.3	934.5	970.2	 1081	 1116	 1204	 1131	 1196	 1163	 1188	 1263	 1235	 1241	 1149	 1130	 1059	 1009	 1023	 1050	 1047	 1083	 1085	 1097	 1073	 1060	999.4	980.3	906.9	849.0	867.6	813.8	580.3	430.7	352.8	263.7	193.5	136.5	113.5	325.0	 3872	9999.9	9999.9	413.3	22.84	16.74	11.59	8.348
425.0	212.7	272.8	445.5	599.9	693.3	801.3	942.2	 1136	 1102	 1174	 1130	 1203	 1218	 1305	 1298	 1302	 1222	 1184	 1088	 1016	 1017	996.2	 1022	 1037	 1067	 1068	 1064	 1103	 1043	 1042	984.6	949.9	880.4	834.9	809.4	703.2	501.8	391.6	301.9	226.9	167.0	120.9	105.1	312.2	 3521	9999.9	9999.9	348.4	19.96	13.33	10.39
430.0	300.9	370.3	475.5	641.3	653.4	860.2	941.0	998.7	 1088	 1085	 1036	 1172	 1139	 1268	 1264	 1263	 1235	 1128	 1110	 1015	957.7	984.0	980.7	 1019	 1039	 1046	 1067	 1055	 1081	 1032	 1012	948.1	909.0	829.7	788.0	755.2	600.9	431.5	339.3	248.8	198.0	151.6	102.5	93.52	280.8	 3422	9999.9	9999.9	312.8	19.74	13.77
435.0	360.9	296.8	454.4	527.0	757.0	756.8	962.8	901.9	 1044	 1098	 1103	 1172	 1229	 1220	 1230	 1281	 1211	 1149	 1002	 1002	979.1	922.5	957.1	997.4	989.3	 1006	 1004	 1052	 1036	 1011	998.4	956.8	915.0	869.4	790.7	739.4	677.3	515.5	370.2	288.2	229.1	176.7	133.5	98.93	88.63	268.4	 3337	9999.9	9999.9	297.9	19.12
440.0	245.2	295.5	465.8	502.7	626.4	785.9	968.8	986.4	968.6	 1107	 1050	 1100	 1155	 1184	 1245	 1254	 1200	 1095	 1036	930.2	914.9	955.0	905.9	923.4	965.1	966.8	999.4	 1020	 1027	980.7	 1007	974.2	922.5	864.1	804.6	710.8	658.4	599.2	426.7	318.5	263.1	205.8	163.2	116.9	89.35	84.21	262.9	 3324	9999.9	9999.9	264.2
445.0	211.9	330.1	361.6	542.4	582.4	768.9	779.6	882.0	974.3	 1011	 1072	 1117	 1187	 1141	 1179	 1201	 1154	 1087	988.2	920.7	895.6	893.4	870.2	905.5	935.0	955.5	975.1	985.3	997.9	 1002	956.8	934.9	918.5	865.8	807.7	705.7	634.5	587.3	506.0	355.3	273.8	217.8	177.6	146.4	103.3	84.96	79.21	258.2	 3361	9999.9	 9044
450.0	198.9	289.5	407.6	447.2	656.3	616.3	807.6	857.5	996.6	999.7	 1011	 1035	 1100	 1182	 1214	 1167	 1141	 1069	945.3	884.3	833.4	830.0	813.9	836.3	880.4	888.1	914.0	928.0	939.6	959.0	934.5	905.2	892.9	839.4	801.8	708.1	609.2	540.8	511.0	413.8	299.5	247.6	200.4	160.8	126.8	105.2	83.70	75.45	261.0	 3174	9999.9
455.0	192.7	265.9	360.2	457.5	592.8	576.9	796.8	898.5	925.1	989.4	983.2	 1007	 1078	 1091	 1137	 1139	 1084	 1011	934.6	850.7	812.4	786.2	795.5	806.3	824.8	833.6	862.3	888.7	893.7	897.6	902.8	879.0	851.2	821.8	752.5	696.7	604.4	528.1	489.9	462.5	347.9	279.1	217.8	180.3	140.5	117.6	90.98	72.58	71.16	242.2	 3202
460.0	217.3	285.4	295.2	415.8	487.6	704.8	770.0	783.4	792.2	877.7	960.9	 1002	 1032	 1097	 1120	 1069	 1051	952.5	892.1	788.3	755.9	735.4	755.5	747.0	773.4	777.7	804.6	828.3	843.2	837.4	848.7	803.4	811.7	778.6	750.3	662.2	601.3	526.4	447.0	423.8	385.1	294.0	227.9	192.0	161.2	129.6	109.6	84.50	66.39	66.46	239.8
465.0	176.7	370.0	428.6	361.4	506.0	538.3	620.8	790.0	775.7	839.8	900.8	886.5	953.9	 1019	 1035	997.3	987.0	927.7	859.6	714.1	714.0	711.4	683.6	709.4	703.6	737.0	745.0	771.9	764.9	786.8	764.7	766.7	764.4	765.4	701.9	652.6	578.2	508.8	445.7	390.1	370.0	337.4	244.9	206.8	178.7	149.5	122.4	92.48	71.47	61.47	64.26
470.0	225.0	325.0	319.4	369.5	481.9	507.2	628.3	647.2	715.8	793.8	811.8	834.4	842.3	 1007	 1046	972.2	931.2	806.0	768.1	693.7	637.1	644.8	633.0	661.0	652.6	663.1	682.4	686.5	730.3	695.7	731.4	707.5	739.3	702.4	675.7	610.4	546.6	489.9	431.4	374.3	330.8	329.6	281.6	216.7	179.8	154.0	131.5	105.6	87.37	63.83	59.32
475.0	190.5	232.7	278.0	279.5	396.3	481.6	564.1	653.7	679.2	695.7	725.0	770.8	877.6	862.3	857.1	937.6	864.1	804.4	696.2	656.6	615.8	580.4	608.7	584.9	582.6	620.4	620.7	646.3	649.5	648.5	662.8	656.2	668.7	651.7	613.0	572.9	504.1	453.0	409.8	355.0	313.3	309.5	292.9	243.3	185.5	157.6	141.6	106.9	95.87	73.67	63.16
480.0	195.7	195.0	283.5	276.1	371.8	411.0	509.6	603.4	574.6	664.0	728.2	749.7	741.9	831.8	825.1	827.1	803.3	767.6	696.1	620.1	570.6	565.0	551.6	536.5	540.5	560.5	569.2	605.6	606.0	596.6	603.9	600.3	625.8	578.5	592.8	526.1	495.6	442.5	382.8	339.5	310.5	274.9	270.4	248.3	204.3	158.9	139.2	115.1	100.1	79.57	68.80
485.0	177.1	171.8	186.2	297.3	396.4	346.0	503.0	529.4	578.3	609.3	701.9	663.9	767.2	796.7	801.4	752.2	727.6	671.1	643.0	564.2	528.8	521.8	517.9	523.9	522.1	529.8	537.3	554.3	544.4	554.0	569.5	566.3	574.8	557.0	556.1	511.5	464.1	420.1	375.7	327.8	297.3	269.9	256.5	245.1	221.7	176.8	137.9	124.3	107.7	89.33	76.99
490.0	118.6	169.4	290.8	250.6	266.7	381.4	419.0	460.1	475.5	590.6	628.5	651.5	726.8	710.7	750.6	748.6	708.7	692.1	584.7	540.9	509.2	483.3	472.8	463.7	471.4	487.9	496.8	490.5	502.7	517.1	514.7	509.4	541.9	517.5	512.9	485.1	454.5	396.3	352.3	312.4	286.1	261.3	238.8	228.6	220.2	195.2	157.3	126.2	108.3	99.14	81.38
495.0	144.8	189.9	208.0	258.7	357.9	393.6	398.2	442.1	504.2	509.1	557.4	633.8	660.2	668.2	702.0	668.9	658.1	622.0	609.9	518.8	475.9	430.6	439.3	443.0	448.1	457.3	472.9	462.9	478.4	484.9	485.4	469.3	489.4	466.8	461.8	448.9	405.5	376.9	335.2	312.9	278.5	258.0	236.2	207.1	204.5	206.0	164.4	138.9	107.0	101.2	87.94
500.0	179.7	152.2	167.2	208.3	290.1	348.6	360.7	444.1	518.8	550.9	550.3	586.9	616.6	622.7	665.7	676.0	643.1	590.3	501.3	503.5	441.2	418.1	422.8	397.4	394.2	422.5	413.6	436.6	413.8	441.6	440.6	433.9	437.9	440.5	431.7	406.4	382.4	350.1	312.0	295.7	260.3	243.3	227.6	209.9	188.5	188.3	175.4	146.7	120.4	107.6	89.77
505.0	140.0	143.2	245.5	193.3	251.6	262.5	345.1	365.7	436.8	448.6	502.3	542.9	560.3	556.5	610.8	591.1	547.6	503.0	477.0	428.2	382.8	414.8	371.8	372.3	370.0	369.0	377.7	385.0	387.7	390.5	388.1	393.9	400.9	396.8	387.6	367.4	347.2	329.6	301.7	272.7	255.9	227.8	214.6	201.1	185.5	167.4	169.7	155.6	124.0	99.92	89.64
510.0	169.2	165.8	158.3	205.7	219.5	277.1	301.8	366.2	437.8	445.0	494.9	499.4	481.4	529.1	535.8	524.5	487.8	482.8	436.6	398.2	348.5	341.2	355.6	334.5	341.1	341.1	324.8	352.1	354.1	336.4	347.8	362.6	367.7	372.3	345.8	339.7	317.2	296.2	279.2	251.7	244.5	213.6	192.3	184.7	172.6	158.0	151.1	153.6	132.4	106.7	86.71
515.0	115.1	176.8	150.6	171.8	206.4	253.8	265.8	334.9	350.3	366.0	408.9	450.2	478.5	481.6	479.6	510.3	462.5	434.1	388.9	380.5	348.5	311.5	309.5	298.2	315.9	309.0	308.2	310.5	319.2	305.1	303.3	326.2	329.6	333.3	330.4	308.2	295.5	271.2	253.3	233.9	223.5	200.4	189.5	168.5	162.6	146.5	137.1	137.7	134.4	114.1	88.34
520.0	145.5	112.5	121.8	138.3	172.6	266.4	246.3	318.1	321.3	344.4	382.4	395.9	415.9	431.5	469.9	423.0	419.6	401.7	356.9	331.5	302.8	284.9	285.6	275.4	279.1	287.0	268.1	276.8	294.7	286.8	277.7	287.6	294.2	301.2	287.6	283.9	269.1	251.9	233.2	219.2	202.6	183.2	170.8	164.3	146.4	142.0	134.8	121.9	124.7	114.6	85.41
525.0	70.98	128.7	160.6	103.6	177.6	195.0	222.9	238.6	303.5	337.6	336.4	330.4	351.8	400.5	400.2	403.8	387.8	346.3	314.9	292.6	276.9	247.4	251.9	251.4	245.1	252.7	252.4	250.0	269.5	252.9	257.0	249.8	259.0	266.4	255.3	252.4	237.8	222.6	211.2	198.4	187.1	171.0	161.4	144.2	140.0	126.0	114.2	109.7	110.7	110.2	97.82
530.0	172.1	99.20	97.54	127.7	170.1	151.6	230.9	213.0	267.1	270.9	295.6	303.7	355.8	390.1	400.3	383.1	377.3	334.5	292.2	281.3	250.2	229.8	231.4	219.8	215.2	224.1	224.9	232.1	235.6	228.1	222.8	235.2	240.4	233.8	225.3	226.6	216.4	201.3	185.1	178.3	162.5	159.2	149.2	143.8	125.6	120.9	110.4	102.6	94.10	93.47	96.92
535.0	68.61	100.3	109.8	133.3	117.7	200.1	174.1	162.2	242.2	281.4	283.1	293.5	315.5	335.7	335.6	344.9	331.7	310.1	287.0	255.4	238.1	197.5	213.7	199.1	199.6	190.4	189.8	186.3	204.8	212.4	186.0	193.2	202.1	209.0	208.9	193.7	191.9	177.1	164.1	153.9	156.4	146.4	129.1	126.0	113.3	112.2	106.0	90.37	86.38	79.38	88.83
540.0	73.51	86.59	126.0	109.9	150.9	188.9	163.0	213.5	220.5	212.7	231.2	250.6	286.0	308.3	323.5	304.8	307.9	283.5	263.0	244.6	212.6	205.2	177.5	185.1	182.3	169.3	162.0	168.7	171.3	185.9	168.4	189.0	183.5	181.6	187.1	175.6	163.6	158.0	148.4	138.8	134.8	124.8	118.8	110.4	103.8	101.1	91.10	79.69	82.91	75.35	68.94
545.0	64.92	72.10	121.1	109.9	130.8	183.1	152.1	174.4	197.5	225.2	197.1	221.1	250.8	279.3	260.8	365.9	257.7	240.4	217.2	203.4	193.4	173.0	160.0	160.3	167.5	150.7	155.1	158.2	153.2	162.6	155.0	154.2	154.4	153.9	158.6	155.4	139.4	134.4	128.7	123.9	117.7	109.2	109.2	103.5	96.98	84.97	84.85	81.22	73.10	73.02	64.09
550.0	52.90	111.5	121.3	116.9	141.0	156.7	106.1	151.9	208.4	183.6	210.0	208.5	214.8	255.1	263.9	410.7	317.4	236.0	200.6	176.4	168.3	162.0	146.4	150.9	142.8	142.0	144.5	134.8	139.3	144.8	139.6	139.8	138.7	156.5	151.9	138.7	137.4	129.5	122.6	115.8	108.9	100.7	95.11	91.29	87.83	85.32	74.60	82.61	71.16	62.25	62.59
