Sample:	'SLABO1-5-5-320
File name:	2H4.FD3
Run Date:	16:28:20, 08/17/2022
Operator:	Administrator
Comment:	'

Instrument
Model:	F-7000 FL Spectrophotometer
Serial Number:	2354-007
ROM Version:	5J14000 06

Instrument Parameters
Measurement type:	3-D Scan
Data mode:	Fluorescence
EX  Start WL:	200.0 nm
EX  End WL:	450.0 nm
EX Sampling Interval:	5.0 nm
EM  Start WL:	280.0 nm
EM  End WL:	550.0 nm
EM Sampling Interval:	5.0 nm
Scan speed:	12000 nm/min
EX Slit:	5.0 nm
EM Slit:	5.0 nm
PMT Voltage:	700 V
Response:	Auto 
Corrected spectra:	Off
Shutter control:	On
Contour interval:	25.000

Peak integration
Integration method:	Rectangular
Sensitivity:	1
Threshold:	1.000

Peaks
No.	ApexEX/EM(nm)	Height(Data)
1	205.0/340.0	967.5
2	205.0/350.0	926.7
3	205.0/370.0	812.2
4	205.0/525.0	281.1
5	205.0/545.0	175.7
6	210.0/325.0	 1065
7	210.0/365.0	777.7
8	210.0/400.0	731.6
9	210.0/465.0	612.5
10	210.0/500.0	395.6
11	215.0/360.0	799.3
12	215.0/410.0	798.4
13	215.0/490.0	447.4
14	215.0/535.0	227.3
15	215.0/545.0	196.1
16	220.0/300.0	827.1
17	220.0/320.0	915.7
18	220.0/405.0	864.4
19	220.0/525.0	294.4
20	225.0/305.0	815.9
21	225.0/330.0	897.9
22	225.0/345.0	823.1
23	225.0/365.0	784.8
24	225.0/435.0	908.0
25	230.0/325.0	851.8
26	230.0/355.0	854.8
27	230.0/410.0	938.6
28	230.0/445.0	927.8
29	230.0/495.0	490.3
30	230.0/535.0	246.8
31	235.0/340.0	912.6
32	235.0/365.0	849.4
33	235.0/425.0	950.2
34	235.0/485.0	581.7
35	235.0/540.0	235.3
36	240.0/395.0	982.5
37	240.0/410.0	 1010
38	240.0/430.0	974.3
39	240.0/545.0	224.1
40	245.0/350.0	864.1
41	245.0/360.0	892.7
42	245.0/375.0	878.6
43	245.0/385.0	898.1
44	245.0/405.0	 1009
45	245.0/415.0	996.0
46	250.0/330.0	935.3
47	250.0/455.0	911.3
48	255.0/360.0	775.1
49	255.0/410.0	 1045
50	255.0/435.0	 1024
51	260.0/430.0	 1015
52	260.0/445.0	 1005
53	265.0/435.0	 1087
54	275.0/305.0	779.2
55	275.0/325.0	567.2
56	275.0/355.0	613.4
57	275.0/420.0	 1028
58	275.0/445.0	 1059
59	280.0/310.0	880.8
60	280.0/340.0	615.1
61	280.0/370.0	698.4
62	280.0/430.0	 1032
63	280.0/460.0	909.9
64	285.0/315.0	909.3
65	290.0/320.0	839.9
66	295.0/330.0	726.9
67	300.0/335.0	685.0
68	305.0/340.0	674.6
69	305.0/410.0	872.0
70	310.0/345.0	614.7
71	310.0/420.0	888.7
72	315.0/350.0	591.2
73	315.0/410.0	918.5
74	315.0/430.0	880.0
75	320.0/360.0	632.6
76	320.0/420.0	909.0
77	325.0/365.0	663.5
78	325.0/415.0	916.9
79	325.0/425.0	909.4
80	325.0/435.0	886.0
81	330.0/370.0	720.9
82	330.0/430.0	891.7
83	335.0/375.0	706.7
84	340.0/385.0	742.1
85	345.0/390.0	737.3
86	350.0/395.0	735.4
87	355.0/405.0	739.4
88	360.0/300.0	24.88
89	360.0/410.0	724.8
90	365.0/415.0	697.3
91	370.0/425.0	681.4
92	400.0/315.0	16.23
93	410.0/310.0	13.22
94	430.0/305.0	9.475
95	435.0/310.0	9.376
96	435.0/510.0	143.8
97	440.0/305.0	8.993
98	440.0/330.0	12.06
99	445.0/520.0	115.3

Data Points
	200.0	205.0	210.0	215.0	220.0	225.0	230.0	235.0	240.0	245.0	250.0	255.0	260.0	265.0	270.0	275.0	280.0	285.0	290.0	295.0	300.0	305.0	310.0	315.0	320.0	325.0	330.0	335.0	340.0	345.0	350.0	355.0	360.0	365.0	370.0	375.0	380.0	385.0	390.0	395.0	400.0	405.0	410.0	415.0	420.0	425.0	430.0	435.0	440.0	445.0	450.0
280.0	89.09	112.4	53.51	63.45	106.1	42.35	71.46	50.36	27.14	50.14	78.17	85.85	65.29	28.96	29.92	 3684	9999.9	 7690	190.7	34.67	36.29	36.96	27.53	23.76	17.05	19.87	17.48	14.89	12.85	14.15	12.77	11.43	13.71	12.57	13.80	11.43	10.68	9.596	8.779	7.781	7.281	6.168	5.526	4.300	4.247	4.113	3.428	4.231	2.829	4.980	3.498
285.0	308.7	279.6	154.1	140.0	286.3	231.9	146.2	98.94	84.67	129.1	156.8	151.6	200.1	137.1	76.35	289.2	 7972	9999.9	9999.9	 1377	54.98	52.54	47.77	35.00	26.65	23.71	22.06	17.47	20.71	17.43	16.16	14.30	15.83	13.44	11.82	13.17	9.775	10.41	7.652	8.916	8.775	8.003	4.734	5.262	4.750	3.784	4.894	4.063	4.394	4.296	3.848
290.0	616.6	338.6	396.1	361.3	420.0	507.4	273.5	156.0	120.2	163.7	266.9	237.9	218.2	323.8	197.2	135.1	598.1	9999.9	9999.9	9999.9	 1832	84.34	63.00	53.59	37.06	30.02	24.25	21.62	23.33	14.42	17.24	17.53	16.35	16.39	16.01	13.60	12.23	11.17	11.32	9.140	8.216	8.306	7.775	4.903	6.012	6.805	5.148	4.145	4.936	4.024	4.771
295.0	715.9	614.0	469.7	676.5	725.6	668.4	492.4	282.6	170.1	233.6	279.6	261.2	267.6	364.5	523.0	242.6	211.4	819.6	9999.9	9999.9	9999.9	 2268	100.2	76.63	60.21	51.50	40.00	34.53	25.23	20.57	20.33	17.47	19.31	19.74	15.66	17.89	14.68	11.75	13.11	11.90	10.87	9.056	7.404	7.839	7.406	6.372	7.246	6.695	4.720	6.352	5.172
300.0	933.8	642.9	672.6	703.0	827.1	788.0	557.1	360.3	267.2	300.5	320.0	323.8	296.7	281.4	580.4	598.4	306.2	253.4	828.4	9999.9	9999.9	9999.9	 2416	121.8	90.94	75.46	54.26	43.10	28.48	26.86	27.39	19.64	24.88	18.98	16.38	17.19	15.33	10.89	12.99	11.92	11.28	11.17	9.518	7.748	6.918	7.516	7.081	6.707	6.463	6.925	6.572
305.0	 1056	833.8	681.0	724.7	773.3	815.9	626.6	440.0	382.4	388.0	374.0	424.9	378.9	350.2	371.6	779.2	608.6	293.2	272.9	835.8	9999.9	9999.9	9999.9	 2857	142.8	100.6	84.84	59.72	44.49	29.70	29.84	25.03	19.91	22.23	20.92	19.31	16.69	16.10	15.45	10.27	10.96	11.98	12.95	9.335	8.203	8.310	9.475	7.881	8.993	7.765	7.970
310.0	918.1	907.0	713.0	696.5	779.6	734.6	656.9	502.8	425.4	493.8	529.1	534.7	430.0	418.0	389.5	497.0	880.8	570.6	254.1	244.9	848.7	9999.9	9999.9	9999.9	 2997	152.9	119.8	92.76	72.01	45.92	35.40	31.13	32.48	26.28	23.98	22.76	16.69	19.45	14.09	14.76	13.45	10.55	13.22	10.03	9.035	8.671	8.172	9.376	6.062	7.912	7.732
315.0	 1030	936.3	828.4	740.8	843.1	768.3	709.9	615.8	521.4	638.1	664.2	606.5	505.2	465.6	424.5	441.2	568.1	909.3	456.4	231.6	206.6	859.1	9999.9	9999.9	9999.9	 2636	167.4	128.4	100.2	74.31	54.45	35.05	32.92	31.08	26.96	24.52	21.38	22.93	17.51	13.60	16.23	12.21	11.06	10.30	9.949	8.590	10.05	8.959	9.506	8.227	8.878
320.0	918.8	855.9	879.7	814.2	915.7	712.8	771.3	649.2	636.3	650.1	728.1	674.9	604.0	517.0	487.1	483.4	538.5	675.5	839.9	356.4	218.2	219.9	890.2	9999.9	9999.9	9999.9	 2628	186.9	135.5	108.7	84.41	50.36	41.53	36.33	29.99	23.97	21.64	21.05	18.10	15.47	14.68	12.91	11.81	12.02	11.36	10.77	9.358	8.176	8.699	7.726	8.173
325.0	972.7	880.7	 1065	872.9	778.9	798.5	851.8	702.9	690.1	794.1	803.3	785.7	682.9	551.5	538.4	567.2	536.8	542.4	743.4	715.8	304.1	200.9	237.3	910.0	9999.9	9999.9	9999.9	 2924	200.9	145.9	112.6	85.49	57.33	48.04	39.67	32.48	26.48	20.13	19.22	17.36	15.66	13.48	13.67	12.69	11.05	10.97	10.96	9.427	8.106	10.08	7.226
330.0	829.7	834.8	773.7	797.4	754.8	897.9	840.6	777.6	809.7	831.9	935.3	836.3	690.7	585.3	524.5	567.0	578.5	551.3	502.7	726.9	568.6	247.3	204.6	237.1	873.7	9999.9	9999.9	9999.9	 2904	207.3	155.7	115.6	88.79	62.94	47.52	36.91	27.74	28.62	20.04	16.48	18.35	16.34	12.78	13.58	10.42	10.95	11.15	10.28	12.06	9.017	7.464
335.0	789.0	953.5	851.3	898.9	905.4	694.8	814.5	802.7	741.5	876.9	886.9	852.9	708.6	578.1	523.0	553.0	581.1	590.1	519.3	479.7	685.0	493.2	227.6	201.2	245.2	893.9	9999.9	9999.9	9999.9	 3016	233.4	167.9	123.3	93.65	68.57	49.47	35.77	30.44	25.76	19.56	17.21	15.74	16.65	12.79	11.50	11.16	11.12	10.04	9.136	9.274	9.235
340.0	859.9	967.5	796.2	705.0	784.2	798.1	882.4	912.6	853.6	875.6	892.2	848.1	689.7	559.1	572.8	581.4	615.1	613.7	545.5	433.8	442.5	674.6	401.3	220.6	203.4	217.2	879.9	9999.9	9999.9	9999.9	 3446	239.1	173.2	122.3	93.89	66.42	45.57	38.58	29.26	22.71	19.80	17.79	15.33	15.49	14.58	12.47	10.96	11.13	9.341	9.585	9.285
345.0	754.4	751.8	815.0	682.2	766.7	823.1	749.5	839.8	837.0	841.0	833.1	769.4	676.2	585.2	553.7	585.9	601.0	598.8	581.2	456.3	377.4	457.3	614.7	339.9	210.4	194.3	232.1	893.6	9999.9	9999.9	9999.9	 3808	256.6	178.5	125.3	97.71	64.01	47.19	34.66	27.59	21.79	20.60	17.65	15.33	14.73	13.94	13.61	10.62	9.925	11.53	10.16
350.0	786.7	926.7	777.2	758.7	604.4	660.9	808.7	813.4	736.9	864.1	760.1	750.2	651.6	578.2	529.3	589.0	553.1	590.4	548.8	469.7	385.1	388.3	510.3	591.2	297.3	215.8	212.0	252.3	896.1	9999.9	9999.9	9999.9	 3982	251.6	183.6	127.1	91.90	64.91	47.10	33.07	26.55	22.38	19.65	14.70	15.09	12.96	11.74	10.01	9.834	9.727	10.45
355.0	714.2	792.0	694.7	646.7	668.0	720.8	854.8	760.7	763.0	847.8	807.1	752.9	690.5	564.6	574.9	613.4	573.0	575.5	568.6	485.5	427.6	391.6	403.0	569.0	569.6	289.6	243.8	236.9	258.9	886.3	9999.9	9999.9	9999.9	 4147	265.4	196.2	113.7	94.98	60.77	41.61	29.84	23.72	20.53	18.69	15.42	13.42	12.95	12.49	10.44	10.53	9.717
360.0	737.2	797.8	770.4	799.3	626.6	721.7	732.3	821.0	813.3	892.7	738.0	775.1	711.8	594.0	576.4	593.9	599.3	627.1	613.2	540.9	472.7	467.3	429.2	445.2	632.6	512.2	314.8	264.5	241.1	269.2	894.9	9999.9	9999.9	9999.9	 3937	261.2	172.2	122.2	79.79	55.48	40.37	29.23	25.33	16.83	16.78	14.60	14.18	12.22	11.74	10.62	10.72
365.0	589.3	653.1	777.7	618.6	755.0	784.8	757.9	849.4	804.6	791.2	813.3	758.5	721.3	659.4	598.9	641.3	638.3	647.6	603.7	572.2	512.4	513.8	477.1	450.3	510.3	663.5	494.7	325.0	289.4	257.6	280.9	897.0	9999.9	9999.9	9999.9	 4436	257.0	168.2	113.8	81.95	52.17	35.52	30.85	21.83	19.15	14.70	14.99	13.43	10.65	12.12	10.22
370.0	579.2	812.2	694.1	693.6	617.9	741.1	760.9	797.0	817.2	864.2	824.4	815.0	790.1	687.3	682.2	659.1	698.4	676.1	660.3	606.8	566.9	580.1	535.6	502.0	505.2	565.0	720.9	474.5	341.7	307.5	259.7	259.2	885.8	9999.9	9999.9	9999.9	 4282	241.7	164.8	108.0	76.40	49.33	35.93	27.63	22.26	17.75	15.57	12.14	11.79	12.63	11.01
375.0	614.9	672.6	680.2	768.2	690.5	746.6	784.0	785.7	811.8	878.6	844.4	783.2	763.1	728.9	679.9	686.3	645.9	727.0	721.3	656.6	618.0	625.2	590.8	574.9	571.7	554.0	646.9	706.7	466.1	339.4	285.4	260.0	266.7	891.3	9999.9	9999.9	9999.9	 4627	224.7	152.9	103.8	71.43	49.90	34.01	25.97	18.73	17.73	14.47	12.13	12.27	11.57
380.0	733.9	597.0	724.6	758.5	733.3	782.9	826.5	792.6	831.0	834.2	871.2	820.3	786.3	747.2	726.9	725.3	718.5	724.0	712.4	674.1	661.1	652.9	644.6	640.3	624.6	590.7	588.5	691.7	646.7	436.6	337.7	286.9	255.5	271.5	891.7	9999.9	9999.9	9999.9	 4143	208.8	138.6	97.72	64.71	48.32	33.66	27.55	23.94	16.89	14.88	12.09	12.56
385.0	644.3	668.1	719.5	798.5	682.0	813.4	863.6	806.6	830.2	898.1	895.6	825.1	801.8	805.9	752.5	771.8	789.0	768.3	743.7	676.6	697.4	700.9	697.1	710.6	678.2	658.3	633.1	629.1	742.1	592.9	411.1	330.6	279.8	241.9	262.5	873.4	9999.9	9999.9	9999.9	 4270	194.6	130.7	90.68	63.36	44.99	35.63	23.66	20.04	14.72	13.15	11.05
390.0	672.5	857.6	725.3	845.7	672.5	714.2	863.0	914.0	908.8	881.1	869.5	834.2	793.0	813.4	827.7	841.3	796.4	795.1	781.2	748.2	743.1	738.7	746.6	721.3	724.6	715.6	686.7	672.8	658.3	737.3	572.9	393.7	337.5	291.1	246.9	260.6	874.5	9999.9	9999.9	9999.9	 4074	193.6	136.1	77.51	58.74	42.79	31.12	21.73	20.15	16.08	13.88
395.0	653.2	693.1	722.9	749.9	706.8	825.3	912.8	947.6	982.5	891.1	859.7	881.4	895.1	795.6	835.1	875.5	857.5	825.6	820.6	791.6	779.6	791.5	792.5	791.9	775.4	771.7	763.9	713.0	681.9	697.2	735.4	523.3	419.2	340.8	286.0	238.6	249.3	845.2	9999.9	9999.9	9999.9	 4194	179.9	111.2	80.98	55.75	42.92	30.53	22.74	19.45	14.08
400.0	560.8	705.0	731.6	690.6	743.3	880.3	907.4	920.3	916.9	968.8	965.7	928.4	919.4	920.7	906.2	912.9	860.2	892.2	853.9	829.0	822.8	806.1	820.0	842.0	831.1	804.8	819.1	757.0	718.1	684.8	716.0	711.5	501.5	396.2	332.5	271.6	229.3	240.8	839.3	9999.9	9999.9	9999.9	 3653	166.5	113.4	74.40	52.49	38.57	29.16	21.31	19.45
405.0	549.0	663.7	693.9	787.2	864.4	829.5	881.0	860.5	 1000	 1009	931.9	 1005	949.4	919.5	957.1	938.5	927.6	900.4	874.9	866.1	820.1	851.3	856.3	876.2	848.0	854.4	842.4	815.0	750.7	728.6	674.0	739.4	664.7	472.6	370.5	322.1	256.6	202.8	230.7	808.9	9999.9	9999.9	9999.9	 3289	157.9	104.2	68.40	49.86	36.01	27.83	21.05
410.0	529.1	591.8	568.9	798.4	681.2	837.2	938.6	872.1	 1010	952.8	996.8	 1045	 1004	 1020	968.4	980.7	953.4	951.2	874.2	864.2	869.7	872.0	861.6	918.5	877.9	890.6	871.5	871.6	808.0	744.1	693.8	671.0	724.8	598.6	443.2	367.4	290.2	239.6	189.0	210.3	800.4	9999.9	9999.9	9999.9	 3045	146.4	96.35	67.78	48.56	33.75	23.45
415.0	611.5	600.1	665.5	757.0	692.1	832.2	922.3	929.6	987.3	996.0	982.6	934.7	979.3	 1019	988.5	 1024	978.9	932.4	906.3	896.9	851.2	866.6	885.7	878.8	905.9	916.9	878.9	863.9	824.7	775.0	733.5	691.0	687.2	697.3	549.6	415.9	332.1	273.2	222.7	179.5	188.8	781.2	9999.9	9999.9	9999.9	 3118	132.4	84.91	61.03	46.06	33.18
420.0	461.9	616.0	633.3	761.0	788.7	866.8	908.0	854.5	963.7	977.4	963.1	959.7	998.3	 1002	 1025	 1028	991.3	940.3	896.9	855.2	861.7	868.4	888.7	874.4	909.0	889.8	891.1	859.1	841.9	820.1	753.2	704.9	651.3	689.4	669.1	484.4	355.0	303.3	237.8	189.5	161.0	174.8	775.7	9999.9	9999.9	9999.9	 2717	123.0	82.63	58.81	41.50
425.0	633.1	539.1	573.6	694.9	845.1	874.3	873.6	950.2	942.3	938.1	922.3	980.1	995.3	993.5	 1012	997.5	969.0	917.1	903.4	854.1	843.5	879.9	884.5	873.0	883.9	909.4	879.9	876.3	857.5	824.1	776.8	721.8	665.5	655.6	681.4	590.8	429.1	339.7	269.8	212.1	167.9	146.3	160.8	763.3	9999.9	9999.9	9999.9	 2374	126.4	72.71	55.18
430.0	549.1	481.4	662.7	746.7	846.8	836.8	889.5	904.4	974.3	958.1	902.5	979.6	 1015	 1010	 1014	 1007	 1032	967.6	870.3	867.7	823.4	843.0	838.6	880.0	878.5	859.7	891.7	870.6	849.3	830.6	783.2	730.7	701.6	666.4	617.1	598.0	514.0	375.3	288.4	238.6	193.5	158.4	127.3	148.0	750.3	9999.9	9999.9	9999.9	 2127	114.6	75.84
435.0	492.1	579.9	664.5	658.6	757.9	908.0	830.0	917.2	906.0	954.8	945.2	 1024	943.7	 1087	 1046	 1056	968.8	912.6	889.4	857.0	831.1	823.2	820.4	841.4	859.3	886.0	863.7	867.7	826.9	834.1	776.5	742.5	715.0	665.5	622.3	574.9	572.7	431.4	314.6	250.8	208.5	165.2	139.0	116.7	145.7	751.3	9999.9	9999.9	9999.9	 2106	106.9
440.0	413.6	678.4	663.3	706.5	792.6	819.5	836.6	847.7	806.9	956.2	913.6	957.5	994.4	 1055	 1047	 1003	984.8	942.1	899.1	805.5	795.8	795.0	800.1	843.0	813.9	838.8	869.5	850.3	822.9	808.8	764.6	737.6	706.5	672.6	614.2	545.1	536.0	499.8	362.7	267.3	216.6	184.3	153.4	123.0	97.05	148.5	742.1	9999.9	9999.9	9999.9	 1868
445.0	412.7	465.8	605.0	595.1	819.1	798.3	927.8	863.8	890.2	904.3	908.9	923.9	 1005	983.4	 1023	 1059	985.1	938.4	912.7	800.8	779.3	785.3	762.5	778.3	800.9	818.1	831.4	802.4	802.2	797.6	758.9	738.0	698.2	680.5	618.0	542.2	509.5	492.8	430.7	303.5	248.2	204.0	165.7	136.2	115.8	106.6	136.7	739.0	9999.9	9999.9	9999.9
450.0	528.6	484.2	569.6	629.1	686.9	751.1	908.8	798.3	871.3	893.8	892.2	939.2	949.7	943.2	 1003	 1016	979.6	891.0	854.9	783.4	743.6	758.6	730.6	759.8	762.3	776.9	763.4	801.4	772.0	755.7	727.6	715.6	677.4	654.2	587.6	564.0	486.3	436.6	444.8	347.8	257.8	221.6	179.9	149.3	121.6	107.5	96.17	138.1	735.0	9999.9	9999.9
455.0	372.0	579.3	454.0	557.6	620.5	749.3	758.1	735.3	800.8	802.9	911.3	911.1	891.3	926.3	974.3	936.8	874.6	869.9	819.0	757.4	727.2	723.4	706.8	723.5	704.5	718.7	729.9	724.3	731.1	725.7	724.7	665.3	657.8	627.2	591.2	540.6	484.3	409.0	397.9	374.6	299.8	232.9	187.7	158.9	144.0	112.1	98.34	92.56	133.1	738.7	9999.9
460.0	362.5	415.9	402.1	610.2	595.5	717.2	705.1	802.8	786.0	762.5	780.7	811.1	915.1	909.7	938.1	849.9	909.9	865.7	755.7	694.1	679.7	670.9	680.8	668.6	668.6	689.5	666.4	688.6	706.1	667.0	664.5	633.4	616.0	613.9	603.3	530.7	471.5	408.3	368.9	356.6	331.3	261.0	202.1	175.9	145.3	120.3	114.5	98.83	85.34	130.5	718.8
465.0	495.6	426.5	612.5	531.7	566.7	732.1	664.7	691.5	742.2	720.4	796.0	825.7	823.1	829.6	884.5	861.0	880.9	746.6	703.7	675.1	659.5	613.1	643.0	612.3	636.3	633.9	633.6	642.4	651.9	628.6	616.5	608.8	605.2	582.5	545.5	526.9	455.4	419.2	358.7	327.7	325.8	288.0	220.3	185.3	157.6	130.4	116.5	105.9	86.46	84.89	122.4
470.0	474.0	373.7	410.5	504.0	585.1	633.9	617.4	660.2	670.1	744.3	733.2	807.5	764.1	784.9	833.4	818.7	790.3	760.3	707.8	658.9	625.0	610.9	603.8	605.3	570.9	620.5	601.4	610.1	601.1	596.2	575.5	552.3	573.1	550.4	525.2	502.4	450.5	382.1	343.2	308.2	283.7	291.9	247.5	191.0	163.8	138.6	132.4	106.7	94.83	86.69	77.57
475.0	350.3	409.5	475.6	519.1	455.4	584.0	577.7	532.1	667.4	667.7	677.2	686.8	708.0	702.0	775.4	783.0	786.8	678.4	680.6	610.8	594.5	572.6	548.5	549.2	528.1	566.2	557.5	560.6	548.1	539.1	542.9	517.9	520.1	506.7	491.0	458.2	410.8	370.3	326.3	300.9	265.9	255.2	261.0	209.7	167.1	142.6	124.1	113.2	96.99	83.25	72.98
480.0	375.4	314.0	347.3	382.7	492.2	434.7	566.9	544.9	585.6	648.4	603.1	680.6	663.9	696.7	733.5	739.4	752.3	661.3	624.3	581.4	561.3	504.8	515.2	519.3	500.1	502.4	507.2	515.0	503.2	503.1	513.7	499.5	487.4	485.7	464.3	445.0	396.1	364.9	319.1	286.0	257.1	238.4	231.3	224.7	178.5	143.7	124.8	115.7	101.9	85.16	77.83
485.0	302.0	310.3	367.0	392.4	415.3	477.4	542.8	581.7	548.1	572.4	629.3	645.2	659.7	694.4	695.1	705.4	678.5	631.8	594.5	545.6	532.9	502.8	500.8	468.5	462.4	481.0	479.0	482.1	473.4	482.3	460.0	450.2	455.3	443.3	435.8	413.3	373.2	340.4	302.6	286.7	248.9	230.5	208.2	217.9	206.7	155.7	137.4	118.8	107.9	91.90	76.26
490.0	281.6	348.0	359.8	447.4	349.4	448.4	426.5	453.4	493.5	524.5	565.2	586.1	579.4	630.0	653.7	640.0	586.6	599.5	555.6	504.8	484.2	483.0	443.1	453.5	457.4	436.6	442.3	442.8	437.6	433.6	407.1	433.9	427.1	423.5	421.6	392.6	366.1	325.9	295.1	262.6	240.2	223.4	205.2	189.1	195.5	183.7	136.8	119.4	109.5	93.75	82.00
495.0	257.1	264.0	354.1	306.2	409.1	453.3	490.3	452.6	450.3	507.3	579.9	531.3	600.6	645.9	657.7	637.8	582.9	567.7	514.1	488.2	478.6	426.1	425.4	425.3	406.9	408.7	411.1	420.9	397.4	401.4	400.9	390.3	401.1	396.9	400.5	373.6	343.1	297.1	289.5	262.5	229.2	224.0	198.5	181.6	178.2	180.1	154.2	120.3	101.5	96.74	85.08
500.0	212.6	380.4	395.6	329.6	323.3	365.7	381.6	437.3	476.4	467.8	516.6	515.9	557.0	572.1	606.5	551.7	568.0	506.1	489.5	466.0	444.8	420.2	399.3	390.0	377.1	389.8	367.6	384.5	383.8	370.9	369.2	361.6	369.5	364.4	360.6	350.1	329.6	292.4	267.1	260.9	226.1	208.5	190.2	180.6	163.5	168.6	166.1	134.7	112.1	103.9	92.88
505.0	298.4	259.2	333.7	326.3	347.0	355.4	369.1	356.2	424.8	467.6	439.9	439.3	522.7	558.8	547.2	499.8	518.3	499.0	463.5	391.1	405.3	384.8	351.2	374.7	369.5	356.4	346.2	362.0	341.4	338.2	334.6	351.0	342.9	327.5	333.1	324.9	303.0	268.7	256.3	221.8	216.2	197.9	177.0	163.6	160.1	147.6	153.1	142.5	113.9	107.0	92.90
510.0	325.6	221.9	269.1	311.2	347.4	345.0	364.8	350.6	447.8	360.7	422.5	447.1	454.6	503.6	500.0	504.0	488.9	424.5	425.0	399.3	377.5	352.7	335.3	340.9	336.0	321.9	309.1	313.9	313.3	316.4	309.9	311.1	313.9	312.2	303.5	297.3	269.4	246.4	232.1	208.6	205.2	191.9	166.6	152.1	140.2	138.8	129.8	143.8	123.1	91.45	85.39
515.0	135.1	269.9	188.7	232.0	278.0	292.6	319.8	345.0	333.7	335.8	344.4	394.6	471.3	436.3	451.6	476.4	455.3	405.0	378.5	354.9	334.9	328.4	309.8	298.2	310.1	303.6	297.6	290.2	284.7	284.3	289.0	282.3	282.7	280.8	281.5	267.1	250.3	237.0	216.5	188.7	186.2	178.2	150.3	150.3	139.0	127.4	123.5	130.6	122.4	114.0	86.93
520.0	186.1	190.1	205.3	256.0	212.2	277.5	313.7	277.9	303.6	312.9	331.4	391.5	396.9	398.8	403.5	442.9	387.3	380.0	373.3	320.9	326.6	282.5	263.0	270.6	272.7	270.3	254.6	265.7	267.2	248.6	261.5	239.0	254.6	251.7	255.9	239.9	229.6	210.6	203.1	166.0	171.3	162.0	155.7	135.9	128.8	121.0	110.7	110.6	112.1	115.3	93.03
525.0	185.9	281.1	192.4	207.5	294.4	207.4	241.4	242.9	282.3	343.8	342.1	346.5	350.9	348.8	380.0	379.0	358.5	333.8	319.7	297.6	275.0	270.5	256.3	240.9	260.8	238.8	241.2	235.1	233.5	229.3	238.5	229.3	233.9	235.4	232.6	223.4	203.0	198.6	178.6	169.3	154.7	141.9	145.5	120.8	116.9	112.0	108.8	99.56	101.7	106.8	100.4
530.0	153.7	184.3	140.5	153.9	248.0	221.9	237.8	249.4	246.0	282.6	279.3	294.6	308.1	366.0	354.3	354.9	364.4	329.0	318.6	273.2	244.5	248.2	233.8	234.2	224.7	222.1	208.4	218.2	210.0	205.4	213.9	202.8	214.5	209.9	206.5	208.3	172.8	175.0	161.9	148.8	143.4	139.0	127.4	117.4	114.2	102.9	105.0	93.94	92.75	86.12	96.02
535.0	108.8	154.1	164.7	227.3	179.0	238.3	246.8	187.6	228.2	274.9	260.7	244.2	273.5	335.9	349.5	331.8	322.2	286.0	277.3	240.9	244.6	213.1	210.6	201.8	188.5	204.7	199.2	182.4	192.4	195.1	194.0	192.9	190.1	191.0	184.5	182.4	169.9	150.5	137.5	134.9	121.8	116.0	110.1	109.7	94.20	91.65	90.66	83.21	78.57	82.42	81.03
540.0	153.7	157.3	133.5	178.0	146.0	201.7	218.7	235.3	197.6	232.4	225.1	228.7	250.5	284.8	405.1	344.6	291.1	267.6	258.1	236.1	214.1	199.6	199.6	194.6	188.2	169.0	160.5	172.0	170.5	154.4	156.4	165.4	169.6	162.4	156.9	158.6	151.9	141.8	135.3	127.2	109.8	111.3	100.1	97.56	86.65	85.68	85.56	85.10	74.93	70.69	69.71
545.0	81.70	175.7	143.4	196.1	176.2	134.8	195.0	141.6	224.1	190.8	198.7	241.7	242.7	248.1	396.7	594.4	293.8	244.2	208.1	208.5	194.4	169.4	178.5	170.6	163.1	152.4	146.0	142.0	151.3	146.5	144.5	156.4	151.9	155.5	156.0	138.6	130.2	122.0	115.0	111.8	109.2	95.91	90.69	89.62	80.05	75.03	77.51	74.04	70.58	65.80	61.86
550.0	156.0	121.3	135.1	172.1	117.7	168.0	167.3	170.2	174.8	185.3	194.6	200.3	214.0	201.7	271.9	 1081	475.5	217.3	210.2	202.1	178.4	170.9	158.4	162.8	150.8	140.6	143.5	136.1	141.6	135.2	128.7	129.8	134.3	125.0	134.9	131.3	128.2	105.7	100.8	102.9	91.78	88.20	83.56	79.19	78.28	75.90	67.93	68.87	65.08	66.10	60.33
