Sample:	'SLABO1-5-5-320
File name:	2H5.FD3
Run Date:	16:11:50, 08/17/2022
Operator:	Administrator
Comment:	'

Instrument
Model:	F-7000 FL Spectrophotometer
Serial Number:	2354-007
ROM Version:	5J14000 06

Instrument Parameters
Measurement type:	3-D Scan
Data mode:	Fluorescence
EX  Start WL:	200.0 nm
EX  End WL:	450.0 nm
EX Sampling Interval:	5.0 nm
EM  Start WL:	280.0 nm
EM  End WL:	550.0 nm
EM Sampling Interval:	5.0 nm
Scan speed:	12000 nm/min
EX Slit:	5.0 nm
EM Slit:	5.0 nm
PMT Voltage:	700 V
Response:	Auto 
Corrected spectra:	Off
Shutter control:	On
Contour interval:	25.000

Peak integration
Integration method:	Rectangular
Sensitivity:	1
Threshold:	1.000

Peaks
No.	ApexEX/EM(nm)	Height(Data)
1	205.0/310.0	 1066
2	205.0/360.0	745.7
3	205.0/400.0	675.1
4	205.0/460.0	524.9
5	205.0/480.0	362.6
6	205.0/525.0	195.6
7	210.0/375.0	672.3
8	215.0/325.0	 1100
9	215.0/410.0	857.2
10	215.0/545.0	144.2
11	220.0/460.0	648.2
12	225.0/540.0	225.4
13	230.0/340.0	 1548
14	230.0/385.0	 1060
15	230.0/410.0	 1082
16	230.0/505.0	428.3
17	230.0/535.0	261.3
18	230.0/545.0	238.7
19	235.0/380.0	 1092
20	240.0/405.0	 1059
21	245.0/390.0	 1023
22	245.0/400.0	 1109
23	245.0/410.0	 1101
24	245.0/435.0	 1078
25	250.0/380.0	940.1
26	250.0/395.0	 1059
27	250.0/430.0	 1155
28	250.0/445.0	 1059
29	255.0/335.0	946.1
30	255.0/410.0	 1095
31	260.0/380.0	951.4
32	260.0/400.0	 1043
33	265.0/445.0	 1107
34	270.0/420.0	 1141
35	270.0/435.0	 1129
36	270.0/450.0	 1083
37	275.0/305.0	 1023
38	275.0/335.0	 1258
39	275.0/350.0	 1202
40	275.0/385.0	 1022
41	275.0/410.0	 1143
42	275.0/440.0	 1126
43	280.0/310.0	 1248
44	280.0/330.0	 1219
45	280.0/345.0	 1264
46	285.0/315.0	 1252
47	285.0/380.0	 1059
48	285.0/430.0	 1349
49	285.0/440.0	 1350
50	290.0/320.0	 1138
51	305.0/340.0	745.7
52	310.0/345.0	657.9
53	310.0/415.0	987.8
54	315.0/350.0	623.6
55	320.0/360.0	634.2
56	320.0/410.0	998.5
57	320.0/425.0	 1004
58	325.0/365.0	689.5
59	325.0/420.0	 1007
60	330.0/370.0	701.4
61	330.0/415.0	995.7
62	330.0/435.0	986.0
63	335.0/375.0	730.2
64	340.0/385.0	744.2
65	345.0/390.0	734.7
66	350.0/400.0	731.7
67	355.0/405.0	740.9
68	360.0/290.0	10.75
69	360.0/410.0	776.3
70	365.0/415.0	746.2
71	370.0/425.0	725.8
72	390.0/310.0	12.56
73	405.0/310.0	8.968
74	405.0/340.0	12.58
75	410.0/320.0	9.846
76	415.0/325.0	9.027
77	420.0/335.0	9.488
78	425.0/315.0	7.614
79	425.0/345.0	10.05
80	425.0/495.0	185.7
81	435.0/340.0	8.375
82	440.0/310.0	8.128
83	440.0/345.0	10.47
84	440.0/365.0	9.162
85	445.0/305.0	6.684
86	445.0/315.0	7.127

Data Points
	200.0	205.0	210.0	215.0	220.0	225.0	230.0	235.0	240.0	245.0	250.0	255.0	260.0	265.0	270.0	275.0	280.0	285.0	290.0	295.0	300.0	305.0	310.0	315.0	320.0	325.0	330.0	335.0	340.0	345.0	350.0	355.0	360.0	365.0	370.0	375.0	380.0	385.0	390.0	395.0	400.0	405.0	410.0	415.0	420.0	425.0	430.0	435.0	440.0	445.0	450.0
280.0	124.0	38.02	54.24	79.20	74.10	66.94	36.37	15.53	12.39	26.97	59.16	70.70	45.13	26.06	17.08	 1980	9999.9	 3883	107.6	21.44	19.76	20.48	12.41	12.46	9.426	9.198	8.721	9.846	10.01	9.610	7.303	8.076	7.642	6.784	7.198	8.012	6.038	6.075	5.011	6.508	3.545	3.515	3.812	2.514	3.799	3.053	2.596	2.858	2.480	2.000	1.497
285.0	351.1	153.7	245.3	236.1	231.2	245.0	125.4	73.83	41.27	60.26	101.2	129.4	170.0	130.7	70.81	193.6	 4621	9999.9	9999.9	755.8	30.32	31.58	25.33	20.48	15.22	13.45	12.97	12.05	9.206	8.871	10.04	8.744	9.818	7.384	10.13	6.260	5.726	6.754	5.441	5.829	4.679	3.152	4.357	3.557	2.996	2.825	2.897	3.032	3.478	2.257	1.862
290.0	477.8	526.3	427.7	505.8	429.1	402.9	306.0	167.4	76.32	101.5	173.5	170.9	232.2	338.4	238.4	196.4	423.7	9999.9	9999.9	9999.9	 1008	45.08	31.48	27.40	24.72	18.09	12.40	12.97	10.74	13.52	8.797	10.17	10.75	9.367	7.989	8.905	6.313	6.816	6.789	7.589	5.029	6.518	5.041	4.643	4.639	2.828	4.312	3.485	4.749	3.840	3.883
295.0	 1015	854.2	588.4	501.6	667.0	655.7	489.4	248.1	148.7	164.1	209.4	253.1	247.5	397.6	546.0	383.8	288.0	810.9	9999.9	9999.9	9999.9	 1333	51.36	40.15	31.03	28.48	19.31	14.91	16.25	13.31	13.01	10.63	8.964	9.565	10.44	8.813	7.681	7.546	8.160	7.800	5.677	6.172	4.169	5.676	4.346	4.961	3.523	5.564	4.841	4.430	3.798
300.0	 1195	981.8	634.7	643.6	841.4	884.0	654.4	387.1	271.5	249.1	290.4	304.4	338.8	353.3	702.4	801.5	451.2	355.1	819.5	9999.9	9999.9	9999.9	 1379	59.29	49.33	38.88	29.60	21.12	20.48	15.79	14.40	11.31	10.71	12.17	10.03	9.643	9.538	7.550	8.047	8.256	6.841	6.770	6.022	6.852	5.088	4.585	3.451	5.476	5.529	5.329	4.735
305.0	 1042	871.3	879.0	700.1	810.5	888.4	744.8	497.4	336.0	372.3	401.0	442.0	420.9	472.7	621.7	 1023	912.0	467.1	322.2	788.6	9999.9	9999.9	9999.9	 1626	73.42	54.82	39.64	38.96	26.27	17.82	16.96	12.40	14.04	13.03	10.58	8.062	9.949	9.239	9.472	9.817	7.443	7.943	6.139	5.769	6.545	5.737	4.328	5.038	5.876	6.684	6.191
310.0	995.9	 1066	770.8	762.8	813.6	926.0	804.8	609.1	458.0	475.2	508.2	521.1	574.1	578.9	656.8	887.6	 1248	834.6	383.7	273.5	791.5	9999.9	9999.9	9999.9	 1725	77.62	60.36	51.29	39.07	26.02	20.68	13.62	15.42	16.88	12.64	13.16	10.76	10.37	12.56	9.345	7.875	8.968	6.474	6.684	6.843	6.900	5.249	4.946	8.128	5.220	7.058
315.0	 1018	 1017	799.7	841.4	745.5	 1048	876.4	765.9	562.8	616.0	663.2	635.1	667.4	648.0	779.3	952.3	 1033	 1252	654.3	306.3	227.0	786.2	9999.9	9999.9	9999.9	 1508	91.89	73.46	50.57	42.56	27.11	25.06	18.19	18.54	16.35	14.94	12.09	10.19	8.354	9.013	8.345	7.856	9.052	6.470	6.373	7.614	5.393	6.539	6.336	7.127	7.040
320.0	886.2	981.2	971.6	782.8	886.3	 1059	 1028	797.2	717.7	707.4	750.9	771.2	755.8	763.5	866.1	 1086	 1032	 1107	 1138	483.6	228.1	214.7	787.1	9999.9	9999.9	9999.9	 1518	97.26	72.09	57.31	46.79	32.46	23.11	22.35	16.52	15.71	14.75	12.62	12.99	11.02	9.219	8.545	9.846	7.823	8.296	6.750	7.378	6.894	6.578	5.941	6.605
325.0	911.0	848.6	 1048	 1100	 1027	 1183	 1211	 1046	875.8	803.4	854.6	846.1	779.8	866.6	934.4	 1135	 1137	 1067	 1099	895.0	366.0	209.7	202.6	792.1	9999.9	9999.9	9999.9	 1675	104.7	81.95	60.85	48.71	30.40	24.63	20.86	16.59	14.71	13.37	12.01	11.99	10.02	9.351	6.762	9.027	7.379	6.497	6.813	7.443	7.209	7.627	7.831
330.0	797.7	892.6	886.4	887.0	 1046	 1229	 1431	 1211	894.9	910.1	890.6	929.8	883.8	882.0	 1002	 1177	 1219	 1116	897.7	923.5	691.6	275.9	189.3	189.6	786.7	9999.9	9999.9	9999.9	 1698	114.9	83.46	63.09	44.56	38.38	27.42	23.01	15.85	14.87	12.40	12.30	9.355	10.26	8.394	7.185	8.071	7.736	7.817	7.715	7.651	7.649	8.400
335.0	729.7	799.5	877.7	761.9	 1088	 1348	 1450	 1126	 1002	852.7	894.9	946.1	905.1	966.8	 1004	 1258	 1208	 1184	989.1	733.8	818.1	542.3	228.8	190.2	188.4	787.7	9999.9	9999.9	9999.9	 1742	125.1	89.39	64.70	50.51	31.99	28.56	19.23	15.74	13.89	12.00	8.485	10.13	9.095	8.320	9.488	6.670	7.896	7.223	6.559	7.501	9.449
340.0	775.2	943.5	821.6	987.2	 1088	 1285	 1548	 1230	972.6	960.8	900.1	915.8	862.4	946.3	 1080	 1219	 1205	 1189	989.8	745.5	580.4	745.7	413.4	216.4	174.0	188.1	785.9	9999.9	9999.9	9999.9	 1951	123.6	96.84	68.22	49.41	39.16	26.12	21.08	18.93	13.79	11.27	12.58	8.998	8.824	8.550	7.056	8.196	8.375	7.685	8.110	7.762
345.0	738.0	770.0	794.5	820.8	989.9	 1373	 1459	 1310	 1079	944.1	885.4	891.0	886.2	916.1	 1035	 1182	 1264	 1179	 1035	765.9	534.8	527.3	657.9	353.7	194.6	177.4	190.4	781.1	9999.9	9999.9	9999.9	 2152	137.8	96.00	67.58	54.55	35.96	25.45	21.64	16.83	14.82	10.13	9.131	9.358	7.457	10.05	6.609	7.121	10.47	7.518	8.765
350.0	680.8	708.0	619.6	798.0	 1044	 1232	 1355	 1252	 1041	922.4	953.8	846.4	877.3	942.9	 1014	 1202	 1173	 1162	986.1	783.7	547.7	456.3	540.2	623.6	305.7	221.7	187.1	201.9	793.2	9999.9	9999.9	9999.9	 2260	133.2	102.3	71.07	53.05	38.97	25.53	22.29	15.87	14.15	11.85	9.301	8.595	8.143	7.214	8.433	7.873	7.816	10.10
355.0	592.5	657.6	627.4	768.8	925.8	 1196	 1315	 1235	981.3	928.3	918.4	859.8	894.4	934.4	 1041	 1116	 1111	 1123	989.3	785.7	625.5	478.6	436.3	612.0	574.1	294.3	222.5	216.2	220.0	794.8	9999.9	9999.9	9999.9	 2306	141.6	100.7	72.32	47.58	34.80	24.69	17.99	15.90	12.14	10.58	9.810	8.837	6.817	6.785	7.292	9.186	9.257
360.0	544.2	745.7	536.8	561.8	 1058	 1011	 1124	 1134	964.0	921.4	927.1	898.9	917.4	931.7	983.6	 1074	 1107	 1125	998.1	804.2	646.4	541.3	469.8	486.4	634.2	524.5	310.6	249.6	215.1	224.9	796.0	9999.9	9999.9	9999.9	 2249	141.0	97.17	63.73	50.41	34.50	27.10	19.08	15.27	12.86	9.326	9.208	7.867	8.659	8.096	8.252	7.711
365.0	661.0	699.8	617.0	655.4	749.3	980.2	 1118	 1030	971.9	909.6	917.4	891.8	871.6	871.2	982.0	 1050	 1055	 1095	973.4	834.2	685.8	600.1	536.7	477.3	526.9	689.5	491.0	330.3	275.3	215.9	225.9	790.5	9999.9	9999.9	9999.9	 2508	130.9	92.94	64.49	48.73	32.63	20.84	17.54	13.79	11.30	9.875	10.60	7.472	9.162	8.473	7.478
370.0	535.5	661.4	608.2	519.3	865.6	981.5	 1011	 1017	996.6	998.7	899.6	884.9	879.1	833.5	939.0	 1049	 1051	 1045	953.7	826.4	718.1	643.3	621.3	559.8	555.5	597.4	701.4	471.7	342.1	268.9	213.1	212.4	800.0	9999.9	9999.9	9999.9	 2402	128.9	92.71	70.17	40.80	28.58	21.00	16.62	12.18	11.46	10.18	9.409	7.053	9.113	8.833
375.0	478.4	546.2	672.3	589.9	843.2	938.9	 1030	 1038	930.8	954.1	918.8	879.7	904.7	918.8	946.0	 1014	985.0	 1050	961.1	834.0	738.6	709.1	647.9	621.9	580.5	577.0	686.9	730.2	444.3	342.3	275.2	221.3	203.6	799.5	9999.9	9999.9	9999.9	 2635	129.4	89.31	59.75	41.47	29.83	21.36	17.17	13.38	10.32	9.764	6.558	8.255	9.306
380.0	493.7	456.7	585.3	603.4	731.3	996.2	988.9	 1092	919.2	937.9	940.1	920.5	951.4	909.4	944.0	978.3	950.9	 1059	961.8	853.4	791.4	723.4	707.5	711.1	650.1	636.9	631.0	693.3	665.1	430.7	317.1	252.6	202.7	204.7	792.7	9999.9	9999.9	9999.9	 2316	119.4	78.61	56.80	38.02	25.99	19.16	17.31	12.59	11.08	9.378	10.17	8.338
385.0	451.0	602.4	601.4	682.0	851.2	883.8	 1060	979.4	919.0	978.9	899.5	891.6	925.0	948.1	991.0	 1022	999.9	 1054	928.7	883.1	804.5	780.9	792.9	757.4	739.8	685.9	672.0	648.4	744.2	603.3	407.4	315.8	255.1	205.0	209.3	783.3	9999.9	9999.9	9999.9	 2475	109.7	75.00	55.06	37.48	27.44	17.83	14.79	12.40	10.43	9.960	8.758
390.0	422.5	517.3	474.8	644.5	730.8	804.3	891.6	 1006	992.1	 1023	927.6	930.6	941.0	929.0	934.6	 1007	 1005	 1052	932.7	924.2	850.5	844.9	823.9	830.3	782.2	764.3	750.5	691.3	681.4	734.7	547.6	378.0	306.5	252.1	211.6	194.9	787.0	9999.9	9999.9	9999.9	 2273	101.9	74.43	46.94	33.75	23.20	18.59	14.44	12.79	11.22	9.815
395.0	401.7	518.0	690.3	713.9	774.4	947.6	 1016	 1029	998.5	979.6	 1059	915.3	939.6	914.3	960.2	958.1	 1008	 1125	963.6	930.1	870.8	873.7	880.6	867.6	844.3	873.5	801.7	740.7	688.2	714.2	731.2	513.0	387.8	325.3	257.8	208.3	200.8	762.6	9999.9	9999.9	9999.9	 2289	97.98	68.97	47.51	32.08	24.53	17.58	16.71	12.74	9.536
400.0	368.4	675.1	556.6	762.3	849.3	895.2	956.5	 1049	 1020	 1109	985.5	943.7	 1043	951.5	 1023	 1028	 1027	 1147	992.7	928.0	910.4	887.2	884.7	907.4	912.7	907.7	871.0	817.1	746.1	694.0	731.7	687.6	476.1	390.4	317.6	253.8	198.7	199.0	759.1	9999.9	9999.9	9999.9	 2009	92.00	64.13	42.24	31.46	21.68	18.75	12.65	12.84
405.0	367.1	490.8	622.8	642.9	767.2	931.2	995.6	 1021	 1059	 1041	 1023	991.0	993.1	 1074	 1001	 1043	 1038	 1173	 1016	940.4	911.9	931.6	932.8	953.4	954.6	930.7	908.4	871.4	814.1	737.4	711.8	740.9	655.1	473.2	370.8	307.5	227.2	192.2	177.8	779.9	9999.9	9999.9	9999.9	 1838	86.57	61.86	42.35	30.23	21.59	17.67	11.21
410.0	426.8	568.9	554.3	857.2	795.5	890.8	 1082	997.8	 1048	 1101	 1031	 1095	984.2	 1071	 1053	 1143	 1016	 1265	971.3	947.1	935.0	930.7	948.4	952.9	998.5	984.4	950.9	926.2	893.7	807.4	730.4	715.7	776.3	617.2	442.5	371.1	287.9	223.5	158.8	202.8	751.8	9999.9	9999.9	9999.9	 1692	83.17	57.99	39.65	26.62	23.81	16.41
415.0	482.4	537.3	692.4	746.9	794.6	945.6	 1038	980.0	 1063	 1077	 1061	 1053	 1036	 1091	 1086	 1098	 1060	 1313	 1014	985.0	954.0	977.6	987.8	974.7	971.0	978.9	995.7	944.1	904.6	832.9	778.4	724.8	727.0	746.2	558.1	425.4	332.2	256.2	196.6	183.8	160.3	742.3	9999.9	9999.9	9999.9	 1681	73.32	51.29	38.79	28.86	18.78
420.0	376.8	406.6	512.9	748.4	743.0	845.1	 1022	 1039	 1044	 1096	 1107	 1100	 1039	 1138	 1141	 1123	 1045	 1319	978.4	976.4	921.7	990.5	978.1	 1002	999.4	 1007	992.3	968.5	940.4	883.4	816.0	763.2	720.0	724.7	704.0	502.2	373.3	295.7	232.0	210.1	144.7	152.4	735.7	9999.9	9999.9	9999.9	 1484	69.30	49.22	33.29	25.54
425.0	406.4	591.1	624.2	640.2	794.9	956.3	 1057	 1060	 1070	 1082	 1093	 1082	 1058	 1080	 1108	 1091	 1044	 1314	986.0	938.6	929.8	928.0	956.5	980.3	 1004	979.3	990.6	954.8	964.7	883.9	842.9	783.7	724.1	699.6	725.8	614.5	433.2	317.4	264.3	228.4	162.9	131.8	146.4	708.2	9999.9	9999.9	9999.9	 1289	66.83	45.48	32.49
430.0	526.0	550.0	529.6	702.5	809.7	906.8	937.9	 1061	 1065	 1028	 1155	 1076	 1032	 1087	 1101	 1111	 1064	 1349	991.1	919.7	864.4	900.9	943.2	948.6	971.8	971.5	973.2	966.9	931.1	908.5	854.5	812.2	755.0	702.8	665.0	650.9	518.2	363.4	294.7	250.3	177.1	135.2	111.0	130.5	713.3	9999.9	9999.9	9999.9	 1211	66.49	43.25
435.0	436.8	472.2	446.2	615.1	820.8	907.8	935.9	985.2	 1040	 1078	 1033	 1077	 1099	 1091	 1129	 1110	 1050	 1336	931.8	901.2	863.8	888.7	888.8	922.3	934.3	925.9	986.0	949.1	919.5	891.6	867.1	809.4	785.7	729.2	657.3	628.0	598.6	435.8	334.1	284.4	208.8	159.7	125.2	104.4	121.8	703.4	9999.9	9999.9	9999.9	 1170	60.99
440.0	376.5	445.2	578.8	679.7	728.2	959.8	959.7	952.0	994.9	 1024	 1012	 1054	 1064	 1079	 1054	 1126	 1027	 1350	939.5	849.5	840.5	900.2	885.7	877.3	893.2	913.7	936.9	936.2	906.5	876.0	851.5	830.8	773.9	708.9	660.8	601.3	569.8	515.5	370.0	303.6	226.0	185.2	143.4	116.0	92.43	117.1	694.6	9999.9	9999.9	9999.9	 1047
445.0	369.5	458.3	449.3	615.3	756.1	727.6	836.2	924.1	923.3	996.7	 1059	949.8	 1070	 1107	 1071	 1081	 1041	 1302	921.8	830.0	809.0	817.9	837.6	864.7	882.9	883.5	896.5	891.6	869.9	835.0	826.9	793.1	764.4	716.7	664.4	599.2	519.1	491.8	444.6	324.2	246.2	197.0	163.5	121.3	105.4	86.32	116.8	700.4	9999.9	9999.9	9999.9
450.0	259.4	349.1	515.2	560.9	646.6	735.4	801.3	870.1	847.0	917.6	968.4	 1042	 1066	 1016	 1083	 1029	993.6	 1300	859.7	792.4	780.1	791.7	804.9	803.7	861.1	830.2	818.8	835.7	838.0	813.9	802.0	766.6	722.5	718.0	668.8	584.5	508.0	464.5	437.7	373.2	267.0	222.7	172.3	143.6	121.3	93.16	77.32	114.8	697.8	9999.9	9999.9
455.0	395.1	402.8	549.5	582.9	619.8	738.4	777.9	779.6	872.5	884.8	905.0	975.3	 1034	982.0	 1007	989.6	967.4	 1230	850.3	758.7	732.5	746.8	717.9	762.8	765.8	795.2	802.6	800.5	801.8	773.3	729.7	734.0	696.0	681.2	647.8	588.6	520.3	452.8	406.3	401.0	310.7	229.9	183.1	159.7	130.4	101.0	88.65	76.95	105.4	693.2	9999.9
460.0	306.3	524.9	429.4	458.3	648.2	500.7	755.1	799.5	849.8	816.9	876.5	903.3	908.2	963.9	 1034	973.2	909.0	 1154	780.2	737.4	729.1	712.3	700.2	711.4	697.7	727.2	759.1	748.6	741.9	736.8	715.2	701.4	681.7	658.1	613.9	558.1	511.9	435.8	372.4	375.0	336.2	254.5	201.5	161.6	141.2	115.8	89.89	82.70	70.96	104.3	685.2
465.0	289.6	392.9	429.7	473.8	611.8	607.4	627.5	701.7	694.6	743.2	788.6	818.9	911.6	866.8	943.1	848.9	879.0	 1058	747.1	699.8	632.0	625.1	653.7	669.6	659.5	675.8	684.4	691.6	685.3	689.4	653.2	658.6	650.1	634.9	585.7	557.4	483.4	433.8	375.2	343.1	328.7	287.8	213.4	181.2	148.9	129.1	103.3	92.39	72.98	64.78	97.10
470.0	361.7	444.0	401.4	446.8	552.1	525.7	652.6	674.5	754.9	732.3	794.5	782.7	775.1	800.4	870.7	848.7	816.5	971.4	696.3	626.9	604.4	600.4	610.2	617.9	597.5	641.5	635.8	639.6	616.6	632.9	614.9	613.9	598.3	591.2	545.7	507.1	458.9	419.8	361.6	340.4	297.1	287.7	244.1	185.2	157.4	123.5	110.1	91.23	79.68	69.21	59.25
475.0	268.3	289.8	301.4	397.0	434.8	481.1	565.5	566.1	638.0	683.3	736.3	708.1	753.1	788.1	784.5	781.8	763.7	915.7	623.2	606.4	553.2	552.1	541.9	556.5	561.1	573.5	562.7	589.3	596.6	596.2	567.0	561.4	573.3	536.6	530.0	475.8	441.2	378.3	357.9	319.6	267.8	260.2	257.4	201.8	159.5	138.2	115.4	94.96	85.43	68.86	61.55
480.0	260.0	362.6	319.9	339.2	434.5	464.9	483.8	538.0	611.4	670.4	674.6	684.1	694.3	742.7	750.8	749.9	708.0	839.0	608.5	571.1	503.5	514.0	526.8	509.1	535.4	514.1	541.8	531.4	538.9	544.2	527.6	522.4	507.9	510.6	480.3	452.6	411.5	377.2	339.5	303.5	264.7	241.2	244.1	226.5	174.1	142.9	125.6	101.5	94.24	80.50	65.19
485.0	229.4	269.7	279.0	297.7	385.5	468.4	442.9	475.9	587.0	612.9	626.9	635.0	681.4	669.8	690.8	719.7	670.0	817.1	573.5	518.8	495.7	490.4	468.8	481.9	476.8	480.3	482.4	486.6	483.0	496.6	479.6	482.7	482.0	492.3	457.8	448.5	413.0	354.9	325.7	287.0	257.9	234.8	213.5	220.7	196.4	161.6	129.9	108.4	100.6	82.75	67.23
490.0	282.8	260.6	333.8	315.5	367.2	399.8	485.4	466.5	557.3	538.3	620.0	566.5	625.2	645.9	673.0	649.7	649.0	726.8	517.5	506.8	462.8	452.6	435.0	456.2	443.7	468.3	467.2	476.1	478.1	460.4	453.6	464.5	458.3	457.1	445.5	400.9	379.5	345.2	304.8	292.0	262.2	221.0	210.3	200.9	197.6	174.1	136.1	116.0	93.30	82.75	74.78
495.0	246.7	236.9	211.7	239.1	355.8	340.0	401.2	419.6	493.0	534.9	548.2	531.0	628.8	596.6	650.9	588.7	608.3	691.3	521.6	489.3	437.7	430.9	428.1	420.5	413.6	429.7	417.6	444.0	424.2	445.8	416.8	414.0	426.1	419.5	413.3	391.8	357.0	330.3	303.5	271.6	243.0	226.0	200.2	188.4	176.5	185.7	150.8	116.6	102.0	85.23	78.31
500.0	219.8	222.1	222.4	246.0	269.0	275.7	345.0	436.2	446.6	465.7	508.9	517.8	559.4	554.6	579.4	550.0	555.7	635.9	480.6	451.1	409.8	384.0	397.2	399.5	377.5	385.4	406.9	402.2	405.7	402.5	381.5	381.0	382.9	376.9	382.5	375.8	327.2	313.1	283.1	257.3	236.3	213.3	201.5	171.8	168.4	163.6	158.2	123.8	99.67	93.49	79.16
505.0	165.5	193.0	239.0	262.9	260.7	338.9	428.3	383.1	395.8	433.0	476.1	498.2	503.0	550.8	565.8	518.3	495.0	608.0	447.0	393.6	387.9	369.8	352.8	344.4	359.2	351.7	363.4	366.6	356.9	355.5	371.9	358.2	370.6	348.0	347.5	340.4	306.5	275.1	265.8	249.3	220.3	200.2	189.5	173.9	161.1	144.8	150.1	140.1	103.7	86.43	78.83
510.0	221.6	187.6	203.6	208.5	219.5	272.9	322.3	349.8	388.1	358.8	407.4	474.1	488.8	470.2	507.9	515.4	456.6	532.0	385.7	354.7	350.2	327.5	333.0	310.0	314.8	323.4	330.1	331.2	315.6	341.6	332.9	330.5	327.6	325.3	313.3	314.8	283.1	260.1	248.1	234.5	199.9	191.1	177.9	158.3	151.3	133.4	142.2	140.2	122.4	93.29	80.94
515.0	137.4	204.8	167.3	179.3	187.3	273.1	280.8	364.2	373.6	374.3	402.2	419.8	439.1	443.0	466.1	447.3	423.3	489.1	368.4	346.2	317.1	297.4	286.2	295.0	285.0	287.2	297.4	290.3	303.0	293.5	283.3	295.0	290.2	303.6	294.3	274.6	268.3	246.0	220.4	215.3	198.9	180.4	167.5	154.9	138.1	132.8	117.2	129.6	119.9	103.4	79.81
520.0	135.5	175.3	82.12	170.3	220.7	275.3	281.6	301.9	322.8	319.8	360.6	326.6	407.3	416.8	420.5	417.3	409.2	438.5	341.3	321.3	280.1	260.2	271.4	253.6	274.2	262.8	274.3	273.8	275.9	259.6	262.3	273.2	268.3	277.7	276.2	264.8	243.6	223.0	203.1	195.2	177.4	170.6	151.1	151.3	133.8	119.0	112.3	103.0	115.8	102.1	79.47
525.0	120.6	195.6	193.0	171.4	170.6	195.6	245.4	269.2	270.7	319.8	327.2	328.2	388.7	379.2	371.1	388.4	368.9	418.7	305.7	275.3	245.3	249.9	240.2	226.9	238.6	235.0	240.3	239.0	237.9	235.5	240.5	232.2	242.7	244.2	227.0	228.0	216.4	212.5	186.4	179.2	162.5	147.4	154.1	131.9	127.2	112.9	103.7	100.4	92.36	102.9	90.09
530.0	105.2	184.9	170.2	120.2	163.8	186.8	258.0	268.2	262.3	284.2	304.3	299.7	311.7	350.6	357.7	343.9	338.7	362.1	283.2	246.4	237.2	216.1	229.9	201.8	215.5	211.5	204.3	208.1	210.1	209.3	215.2	212.3	210.9	229.3	216.8	209.0	209.1	189.6	172.5	155.1	151.4	137.9	132.1	125.2	116.3	106.9	97.92	87.82	85.98	86.15	87.59
535.0	125.8	130.5	143.1	114.6	196.8	161.8	261.3	205.3	230.6	254.2	241.9	281.4	280.3	282.2	318.4	331.6	312.8	313.0	257.7	223.8	224.7	215.5	200.0	192.3	189.0	186.3	190.0	180.7	187.5	187.7	185.8	199.8	192.5	198.0	193.3	189.8	177.4	168.6	151.0	144.6	147.8	125.4	129.1	108.5	105.7	97.50	92.20	86.91	76.30	70.80	76.71
540.0	83.74	128.6	137.3	136.0	155.3	225.4	201.7	204.5	197.1	233.7	219.7	261.1	270.2	256.1	308.7	316.4	275.9	284.5	230.5	204.9	212.9	180.1	173.0	184.5	168.7	162.3	160.8	165.7	164.3	166.1	168.9	173.7	167.6	177.3	165.6	172.5	153.6	151.0	139.3	128.7	121.8	111.3	108.1	98.99	93.79	85.19	85.46	77.44	75.29	67.82	61.87
545.0	84.86	126.4	114.4	144.2	135.0	150.5	238.7	178.5	173.9	222.8	226.3	221.9	232.1	248.3	351.2	391.7	271.0	263.5	208.6	182.4	181.0	171.9	161.4	161.9	149.1	157.9	151.8	147.1	158.4	147.4	146.9	160.8	161.4	152.8	158.9	151.5	145.2	129.3	131.9	121.6	114.6	100.7	97.25	93.38	84.31	80.44	73.55	71.13	65.42	64.70	60.66
550.0	86.98	95.35	85.71	125.5	78.41	168.1	172.6	157.9	155.7	168.6	184.1	205.7	184.5	228.4	237.9	615.2	358.1	241.9	183.3	178.2	157.6	150.3	150.0	142.2	136.3	146.7	141.5	141.5	137.7	137.2	135.2	136.0	135.2	147.0	135.8	131.7	126.1	112.3	114.5	104.0	106.1	99.48	90.10	83.12	77.39	78.21	72.94	66.02	63.19	61.62	56.21
