Sample:	'SLABO1-5-5-320
File name:	2H6.FD3
Run Date:	16:15:48, 08/17/2022
Operator:	Administrator
Comment:	'

Instrument
Model:	F-7000 FL Spectrophotometer
Serial Number:	2354-007
ROM Version:	5J14000 06

Instrument Parameters
Measurement type:	3-D Scan
Data mode:	Fluorescence
EX  Start WL:	200.0 nm
EX  End WL:	450.0 nm
EX Sampling Interval:	5.0 nm
EM  Start WL:	280.0 nm
EM  End WL:	550.0 nm
EM Sampling Interval:	5.0 nm
Scan speed:	12000 nm/min
EX Slit:	5.0 nm
EM Slit:	5.0 nm
PMT Voltage:	700 V
Response:	Auto 
Corrected spectra:	Off
Shutter control:	On
Contour interval:	25.000

Peak integration
Integration method:	Rectangular
Sensitivity:	1
Threshold:	1.000

Peaks
No.	ApexEX/EM(nm)	Height(Data)
1	205.0/330.0	 1037
2	205.0/385.0	968.7
3	205.0/435.0	883.4
4	205.0/455.0	745.5
5	205.0/465.0	852.7
6	205.0/480.0	490.7
7	205.0/510.0	357.6
8	210.0/320.0	 1079
9	210.0/360.0	994.2
10	210.0/395.0	 1015
11	210.0/410.0	863.0
12	210.0/445.0	753.5
13	210.0/470.0	657.4
14	210.0/485.0	483.8
15	210.0/505.0	384.8
16	210.0/545.0	218.2
17	215.0/390.0	 1049
18	215.0/405.0	973.7
19	215.0/520.0	343.5
20	220.0/305.0	929.0
21	220.0/355.0	844.2
22	220.0/410.0	 1004
23	220.0/460.0	704.5
24	220.0/490.0	482.7
25	220.0/510.0	373.3
26	225.0/325.0	815.8
27	225.0/345.0	854.3
28	225.0/360.0	908.6
29	225.0/375.0	868.1
30	225.0/420.0	 1017
31	230.0/335.0	890.9
32	230.0/350.0	757.9
33	230.0/385.0	836.0
34	230.0/415.0	946.6
35	230.0/430.0	978.1
36	230.0/490.0	518.3
37	230.0/510.0	392.9
38	230.0/520.0	323.1
39	235.0/405.0	977.3
40	235.0/420.0	962.5
41	235.0/450.0	837.7
42	240.0/355.0	624.1
43	240.0/390.0	868.3
44	240.0/425.0	931.2
45	240.0/455.0	832.1
46	240.0/530.0	282.9
47	245.0/400.0	930.5
48	245.0/410.0	925.1
49	245.0/430.0	928.0
50	250.0/325.0	473.2
51	250.0/465.0	766.2
52	250.0/485.0	589.5
53	255.0/330.0	481.2
54	260.0/445.0	876.0
55	265.0/415.0	923.8
56	265.0/430.0	979.1
57	265.0/440.0	909.8
58	265.0/455.0	840.8
59	265.0/470.0	744.3
60	275.0/305.0	715.3
61	275.0/410.0	913.9
62	275.0/420.0	915.3
63	280.0/310.0	805.3
64	280.0/335.0	490.2
65	280.0/425.0	925.7
66	280.0/435.0	938.0
67	285.0/315.0	796.5
68	290.0/320.0	720.8
69	295.0/325.0	632.9
70	295.0/410.0	807.6
71	300.0/335.0	631.4
72	300.0/415.0	837.0
73	305.0/340.0	624.2
74	305.0/400.0	805.2
75	310.0/345.0	617.0
76	310.0/410.0	847.8
77	310.0/420.0	839.3
78	310.0/430.0	825.2
79	315.0/350.0	612.6
80	320.0/360.0	629.2
81	320.0/415.0	854.3
82	325.0/365.0	696.4
83	330.0/370.0	696.3
84	330.0/410.0	849.2
85	335.0/380.0	730.2
86	335.0/425.0	831.6
87	340.0/385.0	740.4
88	345.0/390.0	736.0
89	350.0/395.0	704.3
90	355.0/405.0	707.8
91	360.0/410.0	693.5
92	365.0/415.0	696.7
93	405.0/470.0	282.4
94	415.0/345.0	30.84
95	425.0/495.0	170.4
96	430.0/320.0	18.16
97	435.0/330.0	18.12
98	440.0/305.0	13.74
99	440.0/515.0	116.0

Data Points
	200.0	205.0	210.0	215.0	220.0	225.0	230.0	235.0	240.0	245.0	250.0	255.0	260.0	265.0	270.0	275.0	280.0	285.0	290.0	295.0	300.0	305.0	310.0	315.0	320.0	325.0	330.0	335.0	340.0	345.0	350.0	355.0	360.0	365.0	370.0	375.0	380.0	385.0	390.0	395.0	400.0	405.0	410.0	415.0	420.0	425.0	430.0	435.0	440.0	445.0	450.0
280.0	43.08	98.52	89.03	69.08	63.72	88.38	80.56	29.10	28.17	36.52	65.28	66.44	39.16	27.11	26.55	 5894	9999.9	9999.9	279.6	64.01	55.52	52.58	46.18	33.48	37.70	38.30	29.88	30.75	25.05	27.26	23.55	21.21	23.86	24.07	21.12	19.09	17.99	18.03	14.71	13.54	12.21	12.18	10.27	10.27	8.270	7.751	5.911	7.355	6.179	5.709	4.387
285.0	294.4	238.8	237.1	230.4	245.3	276.0	252.5	153.5	90.58	85.21	111.6	119.5	179.7	125.4	62.41	443.0	9999.9	9999.9	9999.9	 2028	92.80	80.21	70.53	54.40	46.68	41.05	36.55	36.51	28.69	31.46	24.86	24.89	24.91	23.16	25.02	21.06	18.49	19.57	15.33	16.79	13.25	12.48	11.07	9.973	9.582	8.856	8.063	7.305	7.445	7.473	6.691
290.0	653.5	513.0	436.4	425.0	475.7	582.5	392.6	220.6	123.0	162.7	169.1	192.9	200.0	303.9	196.4	149.0	765.4	9999.9	9999.9	9999.9	 2774	139.3	99.42	88.31	68.93	51.10	39.55	37.18	37.86	30.31	31.43	30.68	29.03	26.01	26.17	22.27	19.15	19.09	16.16	17.63	15.34	13.35	12.85	12.33	10.31	8.488	9.092	7.581	7.848	7.541	6.895
295.0	729.0	760.9	654.9	491.6	712.1	748.5	598.8	322.8	197.0	168.2	216.3	234.2	209.5	320.5	453.8	277.7	247.1	854.4	9999.9	9999.9	9999.9	 3507	154.1	130.3	104.4	72.39	63.22	48.03	41.52	37.94	42.28	30.07	29.12	31.53	26.23	27.21	25.60	18.87	19.14	18.18	18.30	15.47	13.18	12.74	11.87	9.338	11.05	9.422	11.30	9.458	9.058
300.0	966.7	745.3	763.0	758.4	818.8	884.9	700.5	425.9	236.1	234.4	241.9	261.9	265.5	286.2	532.6	535.6	316.5	281.3	926.2	9999.9	9999.9	9999.9	 3759	182.8	147.3	120.9	93.53	68.65	54.45	49.30	42.20	41.19	33.97	35.64	34.99	31.17	29.20	23.48	23.66	20.16	15.84	17.56	16.43	16.19	13.65	11.50	11.97	12.47	10.76	11.06	9.572
305.0	 1082	867.1	782.3	826.8	929.0	887.3	772.5	483.8	335.2	279.8	298.2	265.0	285.4	298.7	386.7	715.3	551.8	310.7	275.0	909.1	9999.9	9999.9	9999.9	 4497	236.1	173.0	139.6	116.2	78.10	61.47	53.75	47.11	39.70	37.53	37.20	35.50	31.35	27.02	26.22	20.45	22.46	19.02	18.05	14.09	14.50	12.56	13.51	12.81	13.74	12.62	10.27
310.0	 1177	911.6	726.1	848.2	817.0	881.7	711.9	533.5	397.5	347.2	351.5	330.5	339.5	363.0	373.5	449.2	805.3	499.6	239.4	254.4	937.1	9999.9	9999.9	9999.9	 4707	269.4	193.4	163.4	117.2	78.51	69.68	57.22	52.02	45.54	40.87	36.07	34.91	28.46	29.59	27.02	22.95	22.32	20.07	18.17	14.35	14.14	16.46	12.13	13.49	11.29	12.02
315.0	 1133	992.8	766.6	836.5	834.0	848.0	684.5	486.0	365.7	385.5	406.5	350.5	365.7	348.2	419.9	414.6	546.7	796.5	401.1	231.7	278.1	987.7	9999.9	9999.9	9999.9	 4303	292.1	209.0	160.8	121.1	87.44	68.20	67.50	59.26	47.85	44.15	36.21	35.38	26.72	25.41	23.73	23.90	20.42	18.67	15.85	16.82	15.52	15.45	12.15	12.34	10.76
320.0	906.5	 1020	 1079	851.8	731.4	737.4	647.7	471.1	412.1	406.5	416.1	392.9	400.7	361.0	410.9	425.0	437.0	583.9	720.8	337.3	226.1	271.9	 1039	9999.9	9999.9	9999.9	 4332	324.1	240.9	184.7	132.7	96.09	74.84	66.96	54.13	48.17	36.74	40.16	33.41	28.18	26.15	26.28	21.62	20.79	18.70	16.66	18.16	13.15	11.66	14.09	12.96
325.0	 1007	937.9	783.2	838.1	744.6	815.8	713.8	557.8	500.8	433.9	473.2	444.7	446.6	403.5	413.8	434.7	425.1	426.1	626.3	632.9	283.3	221.2	304.1	 1048	9999.9	9999.9	9999.9	 4788	365.6	265.8	193.6	141.7	101.2	81.48	70.80	58.42	45.18	38.60	34.20	31.44	28.34	24.59	22.71	20.61	20.16	18.08	17.94	16.01	13.95	15.02	13.93
330.0	987.5	 1037	839.8	806.7	790.4	770.9	729.0	635.0	593.9	411.9	463.3	481.2	426.9	412.7	434.5	453.1	460.4	411.9	406.6	596.9	535.9	251.1	236.0	309.7	 1046	9999.9	9999.9	9999.9	 4933	388.7	283.5	210.4	149.0	104.2	85.19	71.33	54.14	45.07	38.69	31.16	28.98	24.67	23.04	23.40	18.49	16.77	15.46	18.12	15.79	14.35	14.41
335.0	960.3	938.9	838.6	753.5	753.4	779.6	890.9	645.6	580.5	526.7	441.9	472.6	461.3	413.9	431.1	463.9	490.2	447.5	400.3	379.9	631.4	456.2	251.1	227.4	315.0	 1055	9999.9	9999.9	9999.9	 5204	403.5	296.9	226.2	166.8	109.3	80.04	66.46	53.23	44.56	35.32	31.32	26.31	25.06	24.52	21.86	21.84	19.26	18.09	17.49	16.39	14.11
340.0	860.9	972.6	944.6	903.9	765.3	836.9	684.5	634.1	599.2	509.2	488.7	459.0	430.2	408.1	447.0	465.2	475.7	459.4	411.8	373.9	377.1	624.2	390.4	249.7	250.9	314.5	 1058	9999.9	9999.9	9999.9	 5826	448.0	313.6	232.8	169.6	114.6	78.96	69.14	50.91	44.79	35.07	29.45	27.86	24.59	25.72	22.66	19.59	15.90	15.44	16.53	14.84
345.0	 1082	842.6	786.3	757.3	729.9	854.3	614.1	624.8	581.8	490.4	490.3	475.6	434.8	412.0	429.3	445.7	457.2	451.7	415.6	378.2	329.0	434.7	617.0	341.9	250.6	235.8	319.2	 1033	9999.9	9999.9	9999.9	 6565	453.2	331.9	247.1	168.8	107.4	75.40	62.07	49.21	43.69	32.19	27.51	30.84	24.52	19.97	20.60	19.32	17.69	17.63	16.44
350.0	952.8	794.4	905.1	842.7	836.2	658.7	757.9	618.9	576.8	575.0	469.2	509.8	475.5	387.2	418.5	473.5	469.6	501.4	453.4	423.4	367.3	332.1	475.7	612.6	310.3	267.3	277.8	332.9	 1065	9999.9	9999.9	9999.9	 6799	467.3	342.1	237.6	160.5	101.5	77.88	56.84	49.22	34.59	31.69	28.44	26.88	21.93	20.77	19.68	17.50	17.57	14.85
355.0	886.8	857.1	883.4	814.0	844.2	808.2	717.5	613.3	624.1	621.8	471.5	510.3	467.1	451.4	453.5	458.0	457.0	520.4	496.9	450.9	407.9	372.0	384.5	548.3	535.6	334.4	278.5	281.2	348.4	 1059	9999.9	9999.9	9999.9	 7277	494.6	337.6	229.9	154.6	110.9	72.61	55.58	45.31	35.22	30.28	28.79	24.62	22.66	20.79	20.45	18.91	18.10
360.0	883.6	873.5	994.2	841.4	795.9	908.6	733.4	696.4	583.9	559.9	542.3	553.9	481.6	485.3	497.2	497.6	511.2	523.8	517.1	476.7	465.0	413.4	418.5	438.4	629.2	534.3	343.5	301.0	312.6	352.7	 1065	9999.9	9999.9	9999.9	 6970	475.1	330.1	227.9	145.6	101.8	66.58	58.38	44.21	36.58	31.74	27.48	22.35	20.28	18.59	19.87	16.36
365.0	853.6	909.7	964.0	959.4	940.9	806.4	640.6	627.9	609.0	620.3	592.6	570.2	491.6	505.0	511.1	552.5	520.5	549.5	543.9	511.9	479.2	467.1	466.9	466.2	498.5	696.4	521.4	385.2	346.0	314.8	361.8	 1050	9999.9	9999.9	9999.9	 7753	470.8	311.3	217.2	142.3	91.32	71.94	54.26	48.66	35.00	26.95	22.82	22.34	19.95	19.74	17.15
370.0	978.5	812.5	805.5	891.1	813.8	854.3	769.6	644.8	702.9	616.6	627.9	605.8	540.7	496.1	536.0	586.5	573.5	590.4	571.4	552.2	546.9	505.2	507.8	496.9	518.0	569.2	696.3	508.4	387.3	344.2	328.6	352.4	 1046	9999.9	9999.9	9999.9	 7695	437.2	299.2	206.5	141.2	94.43	67.87	54.25	39.86	32.48	26.27	24.43	20.60	20.57	17.33
375.0	924.4	883.6	896.9	825.9	783.3	868.1	743.3	643.7	689.2	673.5	647.4	574.3	601.4	577.6	594.3	572.7	612.9	610.9	616.5	611.1	570.4	571.3	582.5	542.8	544.0	536.8	659.7	713.5	490.7	396.8	341.0	308.7	356.4	 1052	9999.9	9999.9	9999.9	 8307	417.5	285.1	188.5	134.5	92.72	63.65	50.71	36.05	31.20	26.03	25.13	20.90	18.32
380.0	951.5	923.1	787.7	811.5	730.8	863.8	790.0	714.4	767.1	734.0	704.6	692.8	644.6	635.1	585.6	652.5	648.9	674.0	638.9	613.7	613.0	635.1	617.5	622.6	627.2	594.0	597.7	730.2	660.4	451.3	373.1	330.9	304.3	351.3	 1056	9999.9	9999.9	9999.9	 7496	387.3	269.1	189.4	125.5	82.66	61.38	45.80	37.20	29.60	25.63	22.90	20.09
385.0	917.8	968.7	881.9	865.8	711.0	834.5	836.0	783.0	797.5	751.2	732.4	692.8	683.6	678.1	627.8	675.0	692.4	668.8	664.1	651.6	636.9	680.3	668.5	663.5	686.6	654.5	623.3	638.3	740.4	596.2	430.8	360.4	321.3	301.1	356.9	 1008	9999.9	9999.9	9999.9	 7820	369.6	250.5	180.3	125.0	76.05	58.25	44.36	39.44	28.11	28.25	22.24
390.0	888.1	847.7	781.5	 1049	955.8	954.8	763.0	805.4	868.3	763.1	753.3	766.8	717.7	695.9	686.8	703.3	703.6	733.4	710.0	707.5	686.6	710.2	739.0	729.4	732.8	710.5	686.1	689.4	672.9	736.0	572.0	407.5	355.7	311.7	297.6	320.1	990.7	9999.9	9999.9	9999.9	 7535	364.5	245.6	167.2	119.1	75.06	51.95	45.55	36.50	26.33	22.02
395.0	809.3	789.1	 1015	837.1	915.9	951.4	842.6	827.0	813.1	810.0	817.7	758.2	773.4	715.3	733.9	780.9	755.5	730.9	735.6	735.9	728.2	749.1	759.9	760.2	752.4	763.4	716.0	728.0	655.8	671.7	704.3	500.0	405.5	344.3	314.0	281.9	312.7	975.3	9999.9	9999.9	9999.9	 7632	329.0	234.9	158.1	108.7	72.43	53.83	40.60	35.02	24.48
400.0	730.0	943.7	774.0	922.3	931.3	945.5	891.6	832.5	844.4	930.5	823.3	795.3	758.3	797.5	741.2	834.6	819.2	785.8	779.5	736.0	757.2	805.2	771.1	802.8	810.3	803.3	748.6	789.1	704.5	638.0	683.8	662.7	478.3	398.1	338.9	303.9	266.7	303.9	953.6	9999.9	9999.9	9999.9	 6796	319.3	208.1	144.8	97.36	70.02	48.90	41.99	31.08
405.0	844.0	908.4	741.2	973.7	919.6	862.4	942.1	977.3	922.7	807.7	864.1	833.8	833.2	824.6	841.6	839.6	822.1	789.8	779.5	795.4	780.4	803.3	807.2	835.9	828.9	827.4	813.3	782.3	724.7	688.4	651.7	707.8	606.4	433.1	386.9	320.4	275.9	244.3	272.7	931.4	9999.9	9999.9	9999.9	 6085	288.5	198.6	135.5	91.06	63.05	49.80	36.87
410.0	764.6	847.8	863.0	820.1	 1004	914.6	941.0	872.1	917.4	925.1	916.1	858.7	829.6	811.9	828.2	913.9	812.6	777.7	775.4	807.6	788.8	798.5	847.8	832.0	837.2	836.5	849.2	800.0	772.5	710.1	657.2	652.7	693.5	564.7	430.6	349.0	307.3	251.6	232.6	262.7	906.7	9999.9	9999.9	9999.9	 5641	274.0	188.1	125.5	88.05	61.03	42.61
415.0	773.2	864.4	809.3	884.0	946.0	929.6	946.6	923.9	930.7	907.1	882.7	871.3	864.7	923.8	860.1	856.0	865.3	843.2	803.9	780.7	837.0	810.7	803.6	841.1	854.3	826.3	841.4	829.3	805.2	740.0	691.0	649.4	627.6	696.7	520.7	393.7	340.6	277.7	232.2	209.0	246.1	890.0	9999.9	9999.9	9999.9	 5794	260.1	169.0	114.6	82.62	60.12
420.0	667.5	792.2	733.8	821.0	880.3	 1017	923.3	962.5	885.1	902.6	884.1	860.0	862.6	862.0	871.4	915.3	870.6	838.0	816.7	768.9	771.2	788.5	839.3	823.2	845.0	835.4	841.7	822.8	803.3	758.1	702.4	647.5	601.2	646.1	633.8	447.5	356.9	297.9	251.0	200.9	181.5	228.7	866.5	9999.9	9999.9	9999.9	 5093	247.4	153.8	105.6	74.28
425.0	771.2	718.3	721.5	775.3	788.7	958.6	875.7	926.7	931.2	885.9	876.2	811.8	865.9	919.6	889.0	910.2	925.7	867.3	831.4	786.5	780.6	757.3	809.0	813.9	844.4	840.9	824.3	831.6	818.4	742.1	715.4	644.2	610.1	587.6	631.7	550.7	391.8	314.9	262.3	217.0	186.5	167.4	213.5	854.0	9999.9	9999.9	9999.9	 4426	222.7	154.9	106.7
430.0	644.4	710.7	710.2	888.7	856.0	748.1	978.1	840.9	927.3	928.0	895.7	859.4	864.7	979.1	925.6	903.0	877.4	867.8	802.1	813.3	767.5	739.9	825.2	803.9	841.2	818.8	825.8	826.5	812.5	735.0	729.6	659.4	620.4	585.8	567.2	576.4	470.4	331.2	280.6	230.8	193.9	169.9	153.0	198.0	832.9	9999.9	9999.9	9999.9	 3961	220.9	142.4
435.0	556.1	883.4	848.5	766.2	761.4	908.1	916.1	902.8	888.1	904.0	869.7	883.1	844.0	857.7	866.2	928.5	938.0	833.0	787.9	774.2	765.0	757.1	775.5	777.6	796.0	782.1	795.9	779.4	764.8	731.4	723.6	673.9	620.6	611.2	555.3	527.4	535.5	405.8	297.3	245.6	205.3	173.3	160.0	143.3	190.4	828.6	9999.9	9999.9	9999.9	 3981	199.3
440.0	681.3	804.1	690.2	648.0	773.7	801.7	826.4	893.1	833.0	860.6	867.6	847.5	820.1	909.8	895.9	900.7	892.4	858.0	760.3	729.0	749.1	731.2	792.9	743.2	773.1	765.9	770.6	775.1	762.7	709.5	709.7	663.2	658.0	612.3	559.9	514.0	488.0	469.4	347.7	251.7	219.8	179.9	156.2	145.3	133.6	186.7	825.8	9999.9	9999.9	9999.9	 3526
445.0	651.7	718.0	753.5	654.5	788.0	763.4	787.9	772.7	813.5	776.2	850.7	854.5	876.0	842.0	873.5	906.7	867.9	788.2	753.9	732.4	720.3	703.3	732.5	735.2	725.5	716.4	732.7	755.3	747.9	712.5	709.8	657.6	646.7	596.3	569.9	505.6	458.6	465.8	384.6	281.3	226.2	189.7	157.8	144.0	130.6	120.2	176.2	820.8	9999.9	9999.9	9999.9
450.0	529.9	731.6	703.5	688.6	643.2	789.4	781.8	837.7	825.8	736.2	793.7	812.3	818.9	797.9	848.9	878.8	855.1	765.1	754.8	724.7	673.4	697.7	698.5	710.7	720.5	707.0	716.3	725.5	720.3	666.1	670.0	629.6	609.5	595.1	546.1	510.9	437.9	402.3	411.0	327.2	246.2	198.6	178.1	149.8	133.3	121.5	123.9	177.5	812.5	9999.9	9999.9
455.0	604.6	745.5	575.5	698.2	643.9	756.0	679.6	750.3	832.1	754.9	765.3	733.2	819.2	840.8	829.3	872.7	808.5	730.8	722.5	678.5	637.3	655.5	663.3	658.3	659.3	656.7	655.0	663.9	663.2	649.1	633.9	615.2	586.2	575.8	533.7	492.1	429.1	378.2	362.2	343.8	280.1	214.2	171.0	164.5	129.6	125.3	107.7	110.9	163.8	803.0	9999.9
460.0	550.9	704.3	587.8	660.3	704.5	609.8	749.5	677.8	677.6	747.8	737.6	732.4	764.8	741.3	815.0	811.7	797.5	774.0	668.4	649.6	622.7	622.3	608.3	613.2	617.6	625.9	619.0	654.2	629.9	602.8	624.7	575.2	573.8	551.1	518.3	473.4	439.2	383.0	337.9	320.7	312.3	245.3	187.4	161.5	139.4	122.2	110.5	105.9	102.2	161.6	792.0
465.0	516.4	852.7	637.1	651.8	655.6	594.3	687.7	591.2	690.4	706.1	766.2	676.9	744.0	728.3	785.0	800.1	776.1	685.9	664.5	624.7	597.5	597.7	583.5	561.3	568.7	581.8	605.5	603.2	587.6	569.0	564.8	553.7	532.8	515.2	497.3	466.3	409.8	379.5	324.9	298.6	293.6	276.2	207.0	166.2	150.9	131.4	119.5	108.8	104.4	101.0	154.7
470.0	577.9	649.4	657.4	647.7	676.6	670.2	638.1	588.9	660.9	665.0	683.9	647.9	679.8	744.3	700.1	743.0	679.4	674.9	650.7	584.7	562.6	540.9	532.3	538.8	526.1	549.9	538.7	554.5	549.6	534.9	521.8	512.0	494.4	494.1	477.6	438.2	393.1	364.8	323.0	280.9	260.5	282.4	229.9	177.6	157.7	136.9	118.6	109.7	93.49	91.22	90.50
475.0	396.4	438.2	541.0	579.7	479.1	650.5	570.7	593.4	586.5	609.7	594.3	653.5	615.6	657.8	666.2	668.4	644.7	624.4	560.2	551.0	515.7	503.4	489.3	516.0	499.0	490.6	508.9	532.3	518.4	487.9	491.2	487.3	471.5	472.1	443.1	416.5	376.5	338.4	302.0	263.4	246.2	231.9	235.1	197.6	158.8	134.6	119.4	101.0	90.01	81.92	78.83
480.0	351.8	490.7	425.4	479.5	397.3	471.2	451.1	469.1	471.3	582.6	523.8	583.8	595.4	632.5	625.6	662.1	621.8	580.7	519.2	498.8	503.9	474.6	467.4	446.1	453.7	471.0	459.7	480.1	476.1	448.9	449.9	450.9	436.7	427.9	420.6	391.3	364.7	327.0	290.4	254.7	226.8	211.5	207.8	207.8	166.5	135.9	118.6	108.0	100.6	90.18	79.78
485.0	445.0	467.2	483.8	432.4	448.7	460.9	425.5	483.2	518.8	565.7	589.5	553.2	567.8	587.6	614.1	653.4	585.2	554.6	542.7	461.6	466.0	437.5	450.8	438.3	425.3	449.9	432.3	463.7	435.8	425.4	412.8	415.4	414.3	407.8	389.1	383.0	341.4	314.8	285.0	257.2	229.8	203.0	196.8	196.6	190.2	147.3	124.5	105.3	103.5	96.69	78.74
490.0	308.0	459.2	444.8	467.4	482.7	452.2	518.3	449.8	470.5	520.6	548.6	523.3	548.4	537.9	567.9	563.7	539.1	555.0	466.0	468.9	452.2	432.0	429.2	420.9	406.2	408.4	403.5	431.4	408.0	399.5	385.3	392.1	387.3	385.5	379.8	349.5	320.3	301.3	265.4	243.2	220.6	210.7	185.6	171.0	185.1	163.5	124.2	111.6	93.61	94.06	84.49
495.0	347.1	413.5	377.6	339.2	475.6	414.3	451.5	419.5	387.5	459.1	490.2	462.0	521.4	533.2	559.1	552.9	535.7	515.8	465.2	427.0	416.9	402.9	401.7	394.4	383.9	383.2	380.8	402.8	370.4	368.3	371.5	360.2	365.4	356.6	336.7	327.3	308.8	282.1	254.6	239.9	213.2	197.9	175.9	160.0	165.4	170.4	137.1	115.4	101.1	91.50	82.88
500.0	315.5	391.0	343.6	329.1	374.5	419.1	336.3	397.1	407.9	442.9	445.1	453.7	495.3	514.4	518.8	510.1	482.0	480.5	432.4	387.2	370.6	377.5	361.6	351.7	356.6	370.9	339.4	346.9	344.6	357.4	346.1	339.9	331.3	326.6	335.8	314.6	287.7	259.5	239.2	228.3	204.9	187.6	174.4	166.0	151.2	149.3	147.4	122.2	95.83	98.64	86.65
505.0	278.3	305.7	384.8	289.4	347.1	394.6	389.6	348.2	371.6	399.6	450.2	446.9	456.8	446.9	475.2	475.7	455.3	434.0	398.2	373.2	363.8	339.5	338.3	348.8	332.7	338.5	324.0	322.3	323.8	321.1	309.9	309.5	304.5	308.4	315.8	291.4	275.7	256.1	237.7	212.0	189.4	180.2	169.9	152.7	136.1	134.3	143.7	129.6	106.1	87.20	80.96
510.0	316.3	357.6	325.1	245.0	373.3	327.6	392.9	372.7	338.6	337.1	369.1	364.9	376.2	422.8	457.6	444.3	423.0	391.7	385.0	361.6	302.2	322.2	323.5	313.9	307.0	308.5	285.5	286.5	290.5	285.7	286.2	288.1	277.0	278.9	285.2	265.7	252.1	233.5	207.6	195.9	183.6	167.4	163.2	147.4	129.3	124.2	126.4	126.9	113.2	82.38	79.84
515.0	339.0	280.9	267.4	221.6	320.8	351.1	262.9	339.1	330.6	329.4	333.6	346.6	372.4	369.6	416.4	408.2	391.1	378.2	328.8	328.5	307.3	300.0	268.8	267.1	278.1	277.2	266.3	277.6	278.0	252.4	274.0	270.2	252.3	262.6	261.1	239.1	218.4	209.8	202.8	184.9	170.5	160.9	143.3	135.1	123.1	117.6	105.6	114.4	116.0	96.44	82.49
520.0	231.3	266.0	287.8	343.5	243.4	260.2	323.1	271.5	270.6	292.2	293.9	322.4	349.4	363.4	399.5	389.9	338.0	353.7	313.9	282.2	281.4	272.6	236.5	253.1	250.0	246.2	242.1	248.8	245.2	242.8	241.8	224.3	240.9	230.9	233.1	222.6	201.1	190.4	166.5	160.3	153.1	145.1	135.0	126.7	115.0	106.4	103.5	96.08	102.4	100.6	82.47
525.0	234.1	294.1	180.5	231.0	251.6	280.6	292.6	234.5	235.5	294.5	259.5	297.2	311.2	317.2	341.1	340.7	315.7	337.6	294.3	274.6	258.6	249.3	238.5	236.3	231.7	221.1	230.3	218.0	228.6	214.6	216.5	213.1	207.6	215.3	211.7	195.0	187.9	169.1	157.1	147.7	150.4	136.4	125.7	114.2	104.6	101.7	93.68	88.82	87.31	95.39	91.45
530.0	157.2	306.9	180.5	258.8	248.4	265.4	252.2	234.6	282.9	249.7	252.5	296.9	277.8	327.2	306.8	333.9	303.5	285.9	281.6	240.2	226.5	227.9	217.3	215.4	199.8	191.9	202.7	191.2	198.2	192.1	191.5	187.3	193.2	191.2	188.2	190.3	165.8	156.1	151.6	142.8	132.2	120.6	119.8	102.6	97.26	99.64	94.40	85.45	77.70	83.54	83.99
535.0	192.2	164.7	149.2	228.3	244.4	206.3	210.2	198.2	210.9	192.0	248.2	210.5	282.1	283.4	292.5	290.3	279.4	276.4	258.4	219.7	219.6	207.6	199.1	200.2	188.3	189.2	184.5	186.6	180.9	187.1	172.1	169.8	163.3	170.6	166.6	176.4	152.5	143.9	133.0	131.5	122.7	108.3	105.2	102.5	93.80	85.81	81.35	80.90	75.59	71.41	75.09
540.0	223.2	173.4	184.4	221.5	198.4	214.4	167.8	195.2	181.9	195.8	222.5	213.3	248.8	231.1	405.6	330.3	259.6	236.6	234.0	209.3	206.4	193.4	193.7	178.9	163.9	170.6	173.3	165.6	152.2	158.9	159.9	153.0	148.3	154.6	154.3	148.8	138.9	134.8	125.4	108.6	106.1	101.7	87.19	87.33	82.78	80.24	79.13	70.12	71.93	64.43	65.12
545.0	151.1	183.7	218.2	188.3	167.9	164.4	159.1	188.2	148.1	192.9	163.6	215.6	213.1	229.9	454.0	681.7	291.1	218.5	199.3	193.6	188.0	168.1	186.3	160.0	158.2	158.2	153.4	152.9	145.6	145.7	141.8	142.1	146.8	143.9	142.5	139.4	118.4	114.2	111.2	104.5	93.36	87.59	85.36	77.26	76.09	68.82	70.45	66.01	68.36	59.42	55.85
550.0	184.9	199.7	147.0	191.8	143.1	185.1	126.0	135.9	157.0	161.4	210.3	185.7	194.3	210.8	309.2	 1455	602.0	202.7	192.4	180.9	163.3	162.0	154.7	153.6	145.5	144.3	140.5	143.4	140.0	139.4	123.9	129.9	127.4	131.6	126.0	119.4	114.4	105.0	100.2	97.34	88.61	85.07	81.30	73.60	67.30	68.59	64.68	58.84	62.06	57.75	54.56
