Sample:	'SLABO1-5-5-320
File name:	2H8.FD3
Run Date:	17:17:08, 08/17/2022
Operator:	Administrator
Comment:	'

Instrument
Model:	F-7000 FL Spectrophotometer
Serial Number:	2354-007
ROM Version:	5J14000 06

Instrument Parameters
Measurement type:	3-D Scan
Data mode:	Fluorescence
EX  Start WL:	200.0 nm
EX  End WL:	450.0 nm
EX Sampling Interval:	5.0 nm
EM  Start WL:	280.0 nm
EM  End WL:	550.0 nm
EM Sampling Interval:	5.0 nm
Scan speed:	12000 nm/min
EX Slit:	5.0 nm
EM Slit:	5.0 nm
PMT Voltage:	700 V
Response:	Auto 
Corrected spectra:	Off
Shutter control:	On
Contour interval:	25.000

Peak integration
Integration method:	Rectangular
Sensitivity:	1
Threshold:	1.000

Peaks
No.	ApexEX/EM(nm)	Height(Data)
1	205.0/320.0	810.3
2	205.0/490.0	241.4
3	210.0/345.0	704.2
4	210.0/440.0	586.8
5	210.0/475.0	346.5
6	210.0/515.0	211.6
7	215.0/485.0	342.3
8	215.0/520.0	254.0
9	215.0/540.0	149.4
10	220.0/380.0	805.1
11	220.0/495.0	353.3
12	220.0/535.0	174.5
13	225.0/305.0	962.3
14	225.0/335.0	 1145
15	225.0/350.0	 1087
16	225.0/370.0	917.9
17	225.0/540.0	167.3
18	230.0/340.0	 1067
19	230.0/380.0	863.2
20	230.0/390.0	839.2
21	230.0/410.0	974.9
22	230.0/525.0	239.7
23	235.0/365.0	887.2
24	235.0/405.0	935.7
25	235.0/425.0	954.7
26	235.0/440.0	882.4
27	240.0/370.0	816.6
28	240.0/385.0	899.1
29	240.0/395.0	928.1
30	240.0/430.0	962.5
31	240.0/445.0	883.5
32	240.0/540.0	200.4
33	245.0/410.0	 1016
34	245.0/420.0	 1011
35	250.0/365.0	732.5
36	250.0/415.0	989.3
37	250.0/440.0	942.7
38	250.0/460.0	835.5
39	255.0/410.0	992.2
40	260.0/490.0	589.8
41	270.0/410.0	 1129
42	270.0/420.0	 1119
43	270.0/435.0	 1158
44	275.0/305.0	908.8
45	275.0/390.0	 1001
46	275.0/415.0	 1132
47	275.0/430.0	 1157
48	280.0/310.0	 1113
49	280.0/340.0	946.1
50	280.0/355.0	947.1
51	280.0/375.0	948.8
52	285.0/315.0	 1051
53	285.0/350.0	972.5
54	285.0/360.0	963.6
55	290.0/320.0	907.7
56	295.0/330.0	766.9
57	300.0/335.0	769.2
58	305.0/340.0	710.9
59	310.0/345.0	660.6
60	315.0/350.0	621.3
61	320.0/360.0	609.0
62	320.0/415.0	849.0
63	325.0/365.0	653.7
64	325.0/410.0	838.4
65	325.0/425.0	847.9
66	330.0/370.0	677.7
67	330.0/420.0	867.6
68	335.0/380.0	659.5
69	335.0/415.0	849.1
70	335.0/435.0	816.6
71	340.0/385.0	688.3
72	340.0/430.0	822.7
73	345.0/390.0	655.8
74	350.0/395.0	673.5
75	355.0/405.0	680.1
76	360.0/310.0	14.64
77	360.0/410.0	682.6
78	365.0/420.0	651.6
79	370.0/305.0	11.83
80	370.0/425.0	617.9
81	405.0/315.0	6.870
82	405.0/335.0	8.155
83	420.0/490.0	164.1
84	425.0/315.0	5.908
85	425.0/345.0	7.359
86	425.0/495.0	145.6
87	430.0/295.0	4.481
88	430.0/350.0	8.128
89	430.0/500.0	131.4
90	435.0/330.0	6.799
91	435.0/510.0	112.5
92	440.0/320.0	6.860
93	440.0/365.0	7.353
94	440.0/515.0	103.4
95	445.0/305.0	6.828
96	445.0/315.0	6.627
97	445.0/345.0	7.080
98	445.0/520.0	92.57

Data Points
	200.0	205.0	210.0	215.0	220.0	225.0	230.0	235.0	240.0	245.0	250.0	255.0	260.0	265.0	270.0	275.0	280.0	285.0	290.0	295.0	300.0	305.0	310.0	315.0	320.0	325.0	330.0	335.0	340.0	345.0	350.0	355.0	360.0	365.0	370.0	375.0	380.0	385.0	390.0	395.0	400.0	405.0	410.0	415.0	420.0	425.0	430.0	435.0	440.0	445.0	450.0
280.0	93.07	71.86	68.44	43.07	91.59	33.15	17.19	23.90	25.24	32.12	45.50	70.60	36.31	19.96	19.11	 1907	9999.9	 4091	120.7	16.85	19.69	16.11	14.99	11.43	10.35	8.546	8.842	5.872	6.165	7.437	6.136	6.750	6.143	6.566	4.655	3.929	4.458	3.115	2.409	2.721	2.940	2.670	2.328	1.775	1.700	2.324	2.047	2.075	0.742	1.675	1.750
285.0	171.2	158.0	167.2	163.8	215.8	136.4	121.5	77.69	34.66	87.15	108.5	114.0	172.1	119.1	62.18	171.9	 4611	9999.9	9999.9	800.9	26.79	23.38	22.68	16.25	13.59	11.25	9.794	9.423	8.790	8.401	5.199	6.449	6.904	8.238	4.895	4.033	4.933	3.527	4.386	3.080	3.150	3.946	2.588	2.591	3.138	2.983	1.970	2.291	2.017	2.240	1.519
290.0	533.1	360.5	323.5	360.9	420.5	367.6	276.3	154.7	100.9	137.0	151.6	172.1	228.7	344.0	188.3	144.8	433.7	9999.9	9999.9	9999.9	 1060	36.21	29.21	17.21	18.54	14.98	13.68	8.071	8.597	9.387	8.298	6.720	5.778	6.567	5.590	5.056	5.277	4.807	4.991	4.779	3.691	3.840	4.580	2.246	2.423	3.188	3.220	1.919	2.974	3.180	2.600
295.0	636.9	592.1	438.6	521.4	630.0	572.5	401.8	232.3	145.5	156.6	182.0	223.0	232.2	389.7	516.3	327.5	279.3	797.8	9999.9	9999.9	9999.9	 1346	48.48	36.02	25.56	20.90	16.65	15.68	10.82	9.041	10.71	7.955	8.190	6.068	7.524	7.239	5.996	6.498	4.922	4.764	5.432	4.535	3.200	3.358	3.957	2.726	4.481	3.424	4.514	4.254	4.150
300.0	815.5	636.1	553.6	666.8	674.2	771.4	620.4	333.1	186.8	205.9	239.3	252.2	252.4	349.8	628.9	696.3	403.9	309.8	798.3	9999.9	9999.9	9999.9	 1367	55.85	43.60	29.50	25.42	17.99	15.76	12.39	11.40	9.115	8.596	8.709	8.096	7.691	6.928	7.243	5.704	4.996	6.198	2.800	3.551	3.870	4.083	4.662	3.184	5.414	5.100	3.217	3.590
305.0	909.2	821.5	638.0	594.9	831.3	962.3	665.2	382.1	230.9	263.2	251.0	289.1	328.3	385.6	484.1	908.8	729.8	368.6	241.7	767.5	9999.9	9999.9	9999.9	 1543	64.47	44.66	35.13	25.49	18.20	17.15	11.75	11.70	8.632	11.46	11.83	7.359	6.201	7.259	5.947	6.003	6.506	6.158	4.270	4.846	3.974	4.582	3.354	4.904	4.248	6.828	4.781
310.0	832.3	796.7	639.6	727.4	683.1	905.7	637.2	435.9	339.8	283.8	341.7	344.8	368.8	418.1	527.8	686.7	 1113	634.7	244.8	205.3	767.7	9999.9	9999.9	9999.9	 1535	62.84	51.61	37.53	26.94	19.69	14.69	12.14	14.64	10.35	9.800	8.208	6.482	6.552	6.419	5.822	6.230	5.512	5.132	5.313	6.095	5.233	3.837	5.036	6.567	4.612	3.996
315.0	790.3	757.5	640.5	639.3	750.8	856.9	686.5	534.8	366.1	370.4	360.6	353.4	405.4	467.8	565.8	650.7	806.4	 1051	475.1	209.6	181.3	764.5	9999.9	9999.9	9999.9	 1330	72.30	53.18	45.31	30.04	19.26	16.86	13.07	11.67	10.36	12.27	9.033	8.533	7.368	6.695	5.559	6.870	5.382	4.821	4.765	5.908	4.841	5.255	5.758	6.627	4.799
320.0	678.6	810.3	598.7	770.7	714.5	934.5	843.8	589.1	401.4	466.5	455.2	468.2	460.5	528.0	579.7	669.7	717.0	836.3	907.7	382.4	189.6	195.9	791.0	9999.9	9999.9	9999.9	 1312	81.83	54.81	41.44	34.40	20.68	14.75	12.30	11.40	12.31	10.52	8.392	8.136	6.850	6.806	4.961	6.612	5.527	4.920	4.896	4.993	5.851	6.860	5.751	5.805
325.0	601.4	734.5	709.9	763.3	819.6	943.1	854.8	688.8	477.3	478.9	453.0	488.1	509.2	527.5	673.7	749.6	837.4	738.0	856.1	766.6	297.3	199.4	192.7	794.3	9999.9	9999.9	9999.9	 1365	77.20	64.80	42.02	31.17	23.07	17.41	15.45	12.61	10.01	8.001	8.698	8.081	5.913	5.835	6.000	6.315	5.901	6.692	5.008	6.017	4.850	5.273	5.064
330.0	555.0	579.3	666.3	657.6	706.8	 1061	 1018	703.8	570.1	519.3	510.2	534.4	526.8	594.0	662.0	766.6	864.4	791.4	670.2	766.9	619.6	253.2	189.2	201.1	767.4	9999.9	9999.9	9999.9	 1338	77.70	56.25	44.18	32.88	21.42	15.65	12.40	11.84	11.71	8.044	7.893	7.142	7.605	7.272	5.353	5.525	6.358	5.466	6.799	6.056	4.902	6.567
335.0	534.1	489.1	648.0	662.5	828.8	 1145	 1020	832.5	582.6	530.6	559.4	528.6	558.4	646.4	745.0	825.8	884.3	842.0	689.5	592.6	769.2	497.1	238.5	177.9	186.0	766.7	9999.9	9999.9	9999.9	 1308	83.30	59.92	48.00	31.20	27.50	20.66	14.73	11.25	9.992	8.199	6.947	8.155	6.907	6.388	5.535	5.988	4.748	5.568	5.510	7.041	5.236
340.0	525.8	635.2	620.6	762.5	894.6	980.1	 1067	817.1	621.5	570.0	547.8	582.0	589.8	636.7	790.3	902.3	946.1	878.4	813.3	586.9	519.3	710.9	405.2	211.2	175.7	171.0	761.9	9999.9	9999.9	9999.9	 1453	88.91	65.72	44.21	31.16	24.34	16.25	12.59	11.27	8.932	6.602	7.042	6.937	6.324	4.644	5.095	6.256	6.167	5.289	6.541	5.978
345.0	473.7	629.5	704.2	617.7	816.0	991.3	 1050	832.5	695.3	593.1	606.2	559.8	610.4	660.8	759.0	850.6	938.6	918.6	783.7	611.6	480.9	524.5	660.6	347.0	200.1	149.5	166.0	746.1	9999.9	9999.9	9999.9	 1565	94.99	67.55	44.61	34.27	20.60	19.16	13.14	9.137	7.936	6.521	6.702	5.748	6.065	7.359	7.061	6.693	5.043	7.080	6.163
350.0	493.3	457.1	693.6	727.3	903.7	 1087	966.4	845.5	731.6	665.7	647.6	609.1	657.4	659.1	761.0	911.1	937.0	972.5	833.5	676.7	500.2	411.0	530.5	621.3	311.0	192.9	148.5	179.8	752.7	9999.9	9999.9	9999.9	 1537	81.38	66.28	47.52	30.43	21.38	14.73	12.24	9.472	8.880	7.127	6.577	5.164	5.519	8.128	6.513	5.962	6.532	4.964
355.0	434.3	441.0	546.9	674.1	892.6	938.5	 1008	839.0	728.3	707.6	658.9	596.9	627.2	679.5	833.3	928.1	947.1	919.8	815.0	675.6	524.8	461.1	416.4	593.1	546.5	277.6	181.4	172.4	181.6	755.3	9999.9	9999.9	9999.9	 1601	95.23	66.74	42.08	31.44	20.19	15.17	11.95	9.810	7.755	7.322	7.309	7.339	5.578	5.956	5.528	6.597	6.593
360.0	469.1	524.4	468.5	713.2	789.6	870.8	886.4	834.6	681.9	673.7	697.3	645.8	632.4	730.3	773.8	873.9	938.1	963.6	845.2	705.1	581.8	491.7	446.0	452.3	609.0	472.4	263.3	207.0	177.2	178.0	752.8	9999.9	9999.9	9999.9	 1437	86.81	60.77	38.83	25.51	18.14	16.63	10.64	8.394	8.181	7.693	6.532	5.356	5.592	5.787	6.675	6.093
365.0	429.9	419.2	486.5	591.3	740.0	858.6	884.4	887.2	733.4	669.3	732.5	669.3	706.4	689.7	769.4	886.0	914.2	914.5	884.5	718.1	634.2	554.0	496.0	441.6	502.7	653.7	436.1	278.5	225.8	183.7	183.1	747.6	9999.9	9999.9	9999.9	 1551	84.88	56.44	39.90	26.97	20.80	13.63	11.43	9.196	7.739	7.078	5.432	6.361	7.353	5.911	6.920
370.0	403.6	493.9	489.6	582.2	769.1	917.9	809.8	792.7	816.6	748.7	714.5	678.1	692.2	785.0	815.3	885.5	934.6	885.4	852.0	738.7	652.9	575.8	533.0	495.4	490.7	547.8	677.7	427.9	297.6	229.1	178.2	179.8	747.4	9999.9	9999.9	9999.9	 1499	81.15	52.40	37.72	26.17	18.32	15.04	10.40	8.792	8.312	5.962	5.658	6.614	6.303	6.747
375.0	392.7	439.7	592.3	551.3	726.6	907.5	796.2	849.0	767.1	725.7	739.1	714.5	722.8	792.0	822.0	937.8	948.8	946.8	835.2	739.5	671.1	622.5	579.9	572.9	521.9	508.4	604.3	649.5	390.4	282.0	217.0	173.2	172.6	741.9	9999.9	9999.9	9999.9	 1573	72.26	49.71	33.87	24.86	18.83	12.05	9.893	7.810	8.650	6.073	6.098	6.985	6.917
380.0	260.1	473.0	514.8	608.4	805.1	691.6	863.2	858.7	802.3	734.5	793.8	738.5	759.1	831.6	843.1	882.3	920.7	912.6	825.3	741.3	689.2	638.0	639.7	601.4	561.5	543.8	558.4	659.5	604.8	363.2	285.1	213.6	172.6	173.9	750.3	9999.9	9999.9	9999.9	 1407	75.98	48.58	29.53	22.05	15.67	11.99	9.834	9.403	8.504	6.591	6.807	5.859
385.0	358.2	384.4	554.4	588.8	716.2	807.6	818.3	788.0	899.1	804.4	808.6	790.6	787.3	772.0	868.2	946.6	945.6	927.0	836.9	757.4	705.4	693.7	661.2	662.2	632.5	598.9	570.8	567.8	688.3	547.9	346.4	276.3	205.8	170.8	180.1	736.6	9999.9	9999.9	9999.9	 1405	62.86	46.74	31.78	23.35	14.69	10.71	9.979	7.831	6.908	7.154	6.749
390.0	334.0	485.7	601.4	699.9	674.8	798.5	839.2	738.4	842.1	813.6	833.4	829.7	794.3	829.8	905.3	 1001	955.3	916.9	876.0	790.3	727.7	709.3	695.3	692.3	698.2	670.3	640.7	626.5	616.0	655.8	490.2	340.6	271.4	217.2	177.0	163.6	730.3	9999.9	9999.9	9999.9	 1311	66.27	39.89	28.02	20.86	15.80	13.72	11.51	7.915	7.386	6.025
395.0	286.7	423.0	606.0	566.7	740.2	785.2	818.9	831.2	928.1	847.3	896.1	898.6	862.1	925.9	982.3	930.6	939.5	958.0	862.6	810.8	746.9	768.7	775.5	758.9	737.9	726.1	705.0	672.0	611.5	616.7	673.5	444.5	343.4	266.7	212.8	170.3	156.3	726.3	9999.9	9999.9	9999.9	 1343	58.54	39.11	28.13	19.83	15.63	12.02	11.80	9.261	6.664
400.0	279.8	397.8	544.6	648.1	809.1	849.0	849.3	916.0	926.9	888.3	927.9	869.4	867.6	944.7	 1070	 1040	960.4	948.6	891.5	842.1	795.0	788.0	789.8	781.0	791.7	777.3	756.0	723.2	681.0	627.9	652.1	637.4	423.8	338.3	266.1	216.2	158.2	156.2	719.3	9999.9	9999.9	9999.9	 1152	54.64	38.61	25.90	20.01	15.26	11.44	11.69	7.601
405.0	288.5	459.3	581.0	595.1	689.3	936.7	923.4	935.7	905.9	977.2	973.6	965.4	865.9	 1044	 1059	 1106	 1033	993.4	915.4	836.4	830.4	817.5	821.1	803.7	802.3	813.9	795.9	771.3	717.5	651.7	600.7	680.1	581.0	394.3	318.0	256.4	200.0	157.3	152.7	721.2	 9271	9999.9	9999.9	 1043	46.62	34.43	25.10	18.82	11.98	11.48	9.701
410.0	273.9	397.3	554.9	583.8	703.0	973.2	974.9	850.6	889.1	 1016	939.7	992.2	973.1	985.8	 1129	 1119	 1085	960.7	945.1	885.8	799.8	809.2	830.7	838.9	829.5	838.4	823.7	805.3	764.8	706.9	650.7	639.9	682.6	526.0	391.0	307.0	234.7	177.7	144.2	150.1	659.9	 9030	9999.9	9999.9	967.3	50.27	35.08	22.62	17.56	14.00	9.678
415.0	294.1	427.9	532.8	752.6	706.7	873.0	914.7	880.5	914.4	971.6	989.3	930.3	 1003	 1083	 1083	 1132	 1090	 1016	916.7	847.9	824.9	824.9	824.6	842.3	849.0	823.7	846.9	849.1	784.5	747.2	687.9	627.7	633.3	651.4	481.1	361.6	286.8	214.2	160.5	142.2	132.5	637.3	 8613	9999.9	9999.9	947.7	44.83	33.54	22.17	14.70	12.38
420.0	414.9	540.3	497.3	552.9	721.8	893.3	892.7	941.9	913.4	 1011	935.4	931.4	981.1	 1109	 1119	 1088	 1100	972.3	910.6	835.3	789.7	809.0	823.6	822.8	812.1	838.6	867.6	835.7	802.2	746.2	715.0	669.6	620.7	651.6	609.8	428.7	312.1	261.1	188.9	158.5	116.4	118.3	609.5	 8256	9999.9	9999.9	788.0	43.80	27.17	21.89	16.49
425.0	270.8	349.4	595.5	564.6	720.8	893.7	882.0	954.7	923.7	980.5	952.5	899.9	984.3	 1115	 1106	 1141	 1078	 1005	892.9	844.7	792.9	761.5	766.4	796.1	829.1	847.9	827.5	846.3	795.5	772.4	729.4	668.3	626.6	575.1	617.9	548.9	362.1	293.6	219.1	172.5	130.2	99.70	108.0	575.5	 7602	9999.9	9999.9	716.6	37.23	27.46	17.32
430.0	324.1	431.8	506.8	573.0	640.1	785.6	847.3	910.0	962.5	901.6	948.1	988.0	967.5	 1103	 1095	 1157	 1071	994.0	860.3	828.3	812.9	778.7	768.9	776.2	818.5	827.0	815.6	791.1	822.7	764.1	732.2	699.2	666.1	594.5	565.0	587.7	447.7	322.8	249.0	195.9	153.2	112.1	84.50	101.8	531.4	 7268	9999.9	9999.9	625.2	38.12	24.17
435.0	210.1	462.0	511.3	520.1	683.6	798.3	847.8	820.3	896.1	876.3	928.5	946.9	 1019	 1043	 1158	 1103	 1100	980.7	878.4	819.9	765.8	751.2	742.8	736.1	761.5	787.9	804.5	816.6	786.8	746.7	697.0	703.6	656.4	624.3	556.9	516.8	515.3	381.1	275.0	221.1	178.5	134.1	100.1	78.89	97.20	506.2	 6928	9999.9	9999.9	622.2	33.24
440.0	276.4	397.6	586.8	504.3	643.2	743.1	811.7	882.4	842.5	908.8	942.7	919.6	978.5	 1110	 1133	 1117	 1026	989.4	879.7	768.1	722.0	729.3	716.0	749.8	735.4	749.2	776.0	777.9	772.0	744.9	712.7	686.9	650.9	612.9	569.1	501.8	479.3	456.4	317.2	245.3	179.8	147.5	117.5	88.41	74.01	90.62	486.5	 6845	9999.9	9999.9	547.0
445.0	261.6	326.3	450.7	558.9	570.2	780.6	759.3	776.3	883.5	850.3	911.2	901.2	 1001	977.6	 1079	 1089	 1032	918.9	828.9	754.3	696.9	657.2	687.6	680.2	716.3	732.7	737.9	759.5	755.3	717.2	694.4	664.0	652.2	621.1	564.4	525.1	454.6	445.5	383.6	271.5	210.5	168.2	136.9	101.6	84.92	72.25	83.80	482.7	 6999	9999.9	9999.9
450.0	261.8	382.6	360.1	508.6	552.4	657.1	666.2	712.5	857.0	796.0	803.7	921.5	972.6	946.9	 1042	 1067	 1017	936.0	775.3	708.9	659.5	639.1	630.4	645.4	668.7	682.8	687.0	686.8	688.1	670.5	654.6	652.5	626.8	600.9	549.9	496.6	435.4	407.3	399.8	327.6	215.7	180.7	148.6	109.4	89.94	77.15	66.77	83.02	480.5	 6485	9999.9
455.0	313.9	338.3	365.9	414.9	541.6	577.3	748.7	683.2	769.8	754.4	823.1	896.0	884.7	895.1	991.3	998.8	956.2	842.2	728.8	673.7	643.8	607.4	618.0	613.3	607.9	636.5	635.4	668.4	668.7	643.7	627.4	620.9	602.7	577.3	534.1	481.4	429.5	377.6	344.2	347.0	257.9	189.1	163.1	122.1	95.70	83.71	68.90	59.66	78.65	452.7	 6499
460.0	310.7	381.5	281.8	396.0	577.7	612.6	655.5	673.9	712.7	731.8	835.5	764.6	864.2	889.9	932.9	970.4	907.6	835.1	724.9	638.9	596.8	579.0	596.1	573.7	561.6	578.8	607.0	584.0	599.6	594.6	565.4	577.8	576.6	554.6	530.3	483.8	428.1	378.4	317.4	325.0	299.5	201.8	164.5	131.1	107.1	93.80	75.69	67.92	57.56	75.63	446.3
465.0	342.7	323.8	350.2	350.1	574.1	581.3	563.2	567.9	687.3	672.6	772.4	731.0	789.1	826.0	922.6	890.2	850.4	751.9	660.0	585.5	536.8	518.6	530.6	550.8	537.5	536.6	540.8	549.4	564.9	560.2	562.5	537.3	536.2	527.6	491.8	481.5	409.2	365.0	314.2	285.0	286.7	248.5	173.1	140.8	115.7	100.6	87.49	71.79	56.80	50.43	69.40
470.0	253.4	336.7	300.5	393.3	434.2	512.1	552.1	563.7	630.0	648.2	680.5	689.2	762.3	799.8	826.8	807.9	766.7	701.2	610.1	585.3	515.6	477.5	474.1	475.6	476.1	486.5	519.4	505.9	504.6	506.6	504.0	502.8	498.3	485.0	481.1	442.9	386.4	354.4	299.3	264.2	250.2	253.1	200.7	148.8	126.8	102.6	89.08	77.56	63.18	53.09	47.81
475.0	274.6	319.6	346.5	296.7	388.5	465.0	422.9	558.8	580.0	587.6	600.2	630.2	687.1	712.2	729.7	743.9	707.5	638.5	567.4	509.5	481.5	469.2	454.1	445.9	441.2	447.9	457.5	461.2	469.1	476.9	446.5	464.7	441.6	453.7	427.7	412.8	365.2	334.8	293.8	249.3	229.8	224.6	211.0	167.0	121.8	102.3	93.15	84.41	64.93	58.90	49.66
480.0	230.9	271.2	234.0	279.5	334.2	358.6	513.5	515.1	502.8	512.9	567.9	601.7	604.0	665.1	670.2	713.3	667.6	588.7	520.5	478.7	420.2	413.6	416.7	398.9	399.1	413.6	429.9	421.0	430.2	423.0	422.7	416.3	431.4	425.0	404.8	381.0	349.7	312.4	279.0	255.8	222.7	189.8	196.4	186.5	137.6	109.3	97.03	82.20	73.40	60.67	53.67
485.0	179.2	198.6	184.5	342.3	300.4	355.5	463.4	477.0	466.4	501.4	525.3	565.7	568.7	666.8	647.0	647.3	608.5	561.0	483.7	455.7	400.8	409.3	397.4	380.0	383.5	369.9	371.7	374.9	393.2	377.2	379.0	396.8	398.7	379.1	385.4	366.7	320.6	289.0	258.9	242.5	206.9	188.1	168.0	181.5	160.3	116.8	99.12	87.43	74.93	69.84	55.64
490.0	169.3	241.4	221.8	239.7	313.3	376.0	406.2	387.9	398.6	429.7	482.3	546.6	589.8	543.5	598.3	603.5	568.9	557.6	465.1	435.4	378.7	360.6	361.7	338.9	339.9	347.8	366.8	374.6	372.8	373.1	360.7	364.0	360.9	381.3	354.1	329.8	312.9	273.1	254.8	214.8	192.1	184.0	160.2	148.0	164.1	136.7	95.11	87.72	79.26	69.33	59.53
495.0	163.2	201.7	197.3	253.5	353.3	300.8	311.0	409.7	386.8	457.5	495.1	489.1	542.3	534.4	583.5	563.6	557.3	468.8	452.7	408.6	358.6	338.1	337.0	323.0	330.0	314.0	336.2	326.1	321.3	321.1	336.9	325.0	342.1	341.0	318.7	312.6	290.6	253.7	246.7	213.8	188.8	179.7	160.1	141.3	145.2	145.6	108.1	94.00	80.86	72.85	59.87
500.0	125.5	205.8	207.8	272.9	242.9	330.8	333.4	365.0	346.6	406.8	436.8	469.3	482.5	514.2	494.9	550.8	528.5	419.6	389.4	377.5	329.6	307.3	304.1	309.7	297.4	296.6	299.7	296.1	284.1	306.7	302.3	311.5	305.7	299.9	300.9	283.9	269.3	247.8	219.5	210.8	180.1	163.7	154.1	140.1	129.3	129.1	131.4	99.02	82.17	75.14	64.28
505.0	71.81	175.4	179.5	235.4	260.7	303.3	337.7	326.8	354.0	315.7	386.9	433.5	478.5	449.8	487.4	497.5	466.1	423.9	390.6	327.3	296.3	280.4	259.1	285.1	266.7	266.4	277.1	277.5	266.8	279.4	263.8	270.4	278.8	267.5	279.3	257.8	239.0	223.1	209.9	184.7	167.0	154.8	144.9	128.3	123.2	112.5	115.6	110.3	79.51	70.55	65.94
510.0	148.0	182.8	147.7	200.9	225.2	265.9	276.5	300.8	291.4	336.6	383.0	388.6	397.9	425.9	429.6	424.1	433.4	376.9	343.3	309.5	275.0	267.5	244.6	251.7	234.9	227.3	231.5	253.3	257.1	253.9	249.4	238.7	253.1	248.8	251.5	248.9	222.5	206.9	188.3	172.1	152.4	144.3	142.0	119.8	106.7	95.52	105.0	112.5	96.59	79.60	69.84
515.0	158.0	155.9	211.6	202.7	141.1	208.0	223.7	225.7	275.3	315.4	311.3	337.6	368.6	402.3	408.7	403.5	381.3	368.6	323.5	280.7	265.3	256.7	234.7	229.9	229.6	211.1	214.6	216.0	219.2	217.5	230.8	222.2	230.1	240.2	219.0	216.4	213.2	189.6	168.0	165.8	150.4	140.8	120.8	109.7	104.2	96.20	88.69	99.74	103.4	87.26	66.80
520.0	104.0	177.5	154.4	254.0	173.9	226.6	233.8	223.0	263.4	295.5	263.7	331.7	327.8	387.0	358.0	384.8	352.3	338.7	278.2	261.0	225.9	225.8	221.9	205.8	200.1	203.0	198.3	189.0	191.6	200.0	194.8	195.7	198.4	211.0	211.5	194.8	193.3	171.1	151.9	147.1	131.2	116.5	120.5	107.4	98.25	91.59	79.71	84.77	87.74	92.57	67.14
525.0	163.4	117.5	160.7	147.6	115.5	228.9	239.7	239.5	234.3	250.9	263.6	282.4	318.2	332.1	319.4	354.9	331.3	290.9	287.2	241.7	201.7	207.1	201.8	185.0	180.6	180.0	172.8	170.6	170.0	178.4	169.0	178.2	183.6	175.5	173.9	168.0	158.7	157.1	144.9	123.7	126.8	116.9	110.5	100.2	90.86	86.66	78.63	75.44	72.44	85.81	74.18
530.0	99.89	85.36	131.4	99.40	137.1	177.2	221.3	203.1	203.5	232.0	206.3	244.8	288.2	297.6	317.8	313.6	302.9	245.6	231.9	215.5	197.1	181.5	177.5	169.0	175.8	163.8	160.2	160.5	151.7	149.1	152.1	160.4	153.5	169.7	162.7	159.7	147.5	140.5	128.1	124.0	103.3	98.30	93.45	86.35	83.71	78.60	71.09	71.03	63.17	67.38	72.29
535.0	65.37	102.6	129.5	136.4	174.5	149.0	172.6	189.4	176.2	212.0	222.0	228.3	239.0	252.9	266.0	299.4	284.0	238.9	224.9	185.1	165.3	160.5	163.0	150.3	143.9	143.6	145.0	145.3	140.1	136.4	145.3	138.8	139.6	136.5	149.6	137.3	126.7	126.2	103.3	103.4	99.92	93.19	86.01	77.57	72.79	71.73	68.80	66.53	58.01	59.92	68.72
540.0	120.0	72.21	91.19	149.4	117.4	167.3	138.2	139.3	200.4	192.8	158.8	198.2	194.4	260.4	291.7	291.7	237.8	216.2	213.8	166.0	158.2	156.0	156.1	146.0	140.6	131.4	127.1	130.5	127.5	128.2	128.6	124.9	122.9	129.4	121.5	121.1	112.2	105.5	104.0	92.30	83.86	84.50	75.45	80.68	69.52	68.57	61.95	61.41	56.82	53.30	55.87
545.0	139.0	59.09	97.48	104.2	122.9	128.2	139.1	155.1	133.6	179.8	178.3	173.4	212.1	202.7	289.4	382.9	230.2	193.3	178.8	176.2	144.6	138.4	130.9	114.4	119.4	115.7	120.1	110.0	113.2	119.0	109.3	109.8	116.9	113.1	118.3	113.5	106.0	94.30	90.19	89.76	78.41	83.27	78.80	70.29	61.18	62.21	55.08	55.59	51.59	50.76	46.40
550.0	92.15	118.6	100.6	107.0	107.5	72.08	100.7	105.4	154.1	146.8	159.2	144.5	176.0	175.4	232.1	558.5	332.1	170.5	181.9	145.8	133.6	125.9	119.5	122.1	119.8	109.8	104.2	110.9	104.6	104.2	100.6	101.7	95.47	102.2	108.7	104.6	95.89	90.23	84.70	81.43	74.44	67.40	63.65	63.63	61.74	59.45	58.16	52.77	46.76	47.31	44.55
