Sample:	'SLABO1-5-5-320
File name:	2H9.FD3
Run Date:	17:37:15, 08/17/2022
Operator:	Administrator
Comment:	'

Instrument
Model:	F-7000 FL Spectrophotometer
Serial Number:	2354-007
ROM Version:	5J14000 06

Instrument Parameters
Measurement type:	3-D Scan
Data mode:	Fluorescence
EX  Start WL:	200.0 nm
EX  End WL:	450.0 nm
EX Sampling Interval:	5.0 nm
EM  Start WL:	280.0 nm
EM  End WL:	550.0 nm
EM Sampling Interval:	5.0 nm
Scan speed:	12000 nm/min
EX Slit:	5.0 nm
EM Slit:	5.0 nm
PMT Voltage:	700 V
Response:	Auto 
Corrected spectra:	Off
Shutter control:	On
Contour interval:	25.000

Peak integration
Integration method:	Rectangular
Sensitivity:	1
Threshold:	1.000

Peaks
No.	ApexEX/EM(nm)	Height(Data)
1	205.0/330.0	 1219
2	205.0/520.0	231.8
3	210.0/325.0	 1165
4	210.0/530.0	225.7
5	215.0/455.0	833.3
6	215.0/510.0	335.7
7	215.0/525.0	262.0
8	220.0/545.0	212.9
9	225.0/325.0	 1501
10	225.0/390.0	 1149
11	225.0/405.0	 1171
12	230.0/340.0	 1512
13	230.0/375.0	 1121
14	230.0/385.0	 1184
15	230.0/420.0	 1301
16	230.0/540.0	264.3
17	235.0/380.0	 1083
18	235.0/400.0	 1230
19	235.0/410.0	 1243
20	235.0/430.0	 1304
21	235.0/525.0	409.3
22	240.0/395.0	 1221
23	245.0/365.0	 1066
24	245.0/405.0	 1263
25	250.0/335.0	 1146
26	250.0/350.0	 1094
27	250.0/370.0	 1031
28	250.0/390.0	 1188
29	250.0/415.0	 1271
30	255.0/340.0	 1152
31	255.0/365.0	 1084
32	255.0/420.0	 1340
33	255.0/435.0	 1350
34	260.0/335.0	 1144
35	260.0/380.0	 1071
36	260.0/410.0	 1256
37	270.0/450.0	 1418
38	275.0/305.0	 1027
39	275.0/370.0	 1149
40	275.0/400.0	 1248
41	275.0/435.0	 1430
42	280.0/310.0	 1240
43	280.0/350.0	 1370
44	280.0/380.0	 1156
45	280.0/395.0	 1193
46	285.0/315.0	 1335
47	290.0/320.0	 1225
48	305.0/340.0	645.7
49	310.0/345.0	606.3
50	310.0/420.0	 1116
51	315.0/350.0	587.9
52	320.0/360.0	668.6
53	320.0/415.0	 1132
54	320.0/430.0	 1106
55	325.0/365.0	700.8
56	325.0/420.0	 1109
57	330.0/370.0	739.3
58	330.0/425.0	 1135
59	335.0/380.0	754.6
60	335.0/435.0	 1100
61	340.0/385.0	787.8
62	345.0/390.0	785.5
63	345.0/440.0	 1082
64	360.0/285.0	8.905
65	360.0/410.0	859.5
66	365.0/300.0	12.09
67	365.0/415.0	853.1
68	385.0/295.0	8.857
69	385.0/315.0	10.86
70	400.0/320.0	9.709
71	405.0/310.0	8.150
72	410.0/325.0	8.978
73	430.0/295.0	5.173
74	435.0/330.0	8.606
75	435.0/365.0	11.03
76	440.0/310.0	6.607

Data Points
	200.0	205.0	210.0	215.0	220.0	225.0	230.0	235.0	240.0	245.0	250.0	255.0	260.0	265.0	270.0	275.0	280.0	285.0	290.0	295.0	300.0	305.0	310.0	315.0	320.0	325.0	330.0	335.0	340.0	345.0	350.0	355.0	360.0	365.0	370.0	375.0	380.0	385.0	390.0	395.0	400.0	405.0	410.0	415.0	420.0	425.0	430.0	435.0	440.0	445.0	450.0
280.0	107.5	119.0	68.02	82.24	88.66	83.76	37.27	21.20	34.64	53.56	71.30	104.3	61.84	27.53	20.18	 1757	 9983	 3621	96.56	19.19	15.01	19.34	15.23	10.68	14.21	10.07	4.792	6.219	9.932	6.120	7.412	7.880	6.287	8.081	5.436	6.208	6.319	4.493	3.470	3.617	3.296	3.818	3.450	3.732	2.592	2.226	2.347	2.099	2.347	2.237	1.760
285.0	345.0	203.9	250.0	280.8	313.4	371.0	206.5	96.94	83.18	117.7	178.2	181.8	237.0	157.4	70.06	175.5	 4306	9999.9	9999.9	689.0	25.98	25.08	24.55	15.37	17.01	9.774	10.60	11.52	7.716	8.101	7.236	8.132	8.905	6.205	7.345	5.587	6.504	5.523	5.993	4.857	4.258	3.653	4.166	4.287	2.917	2.270	2.339	3.684	3.199	2.928	3.000
290.0	578.2	571.8	401.3	502.8	608.6	581.4	381.6	174.1	145.6	191.7	233.0	245.9	260.7	384.8	222.3	167.5	382.4	 9253	9999.9	9999.9	862.9	36.37	35.10	27.48	20.28	12.64	11.21	11.67	10.08	9.946	8.346	6.846	7.789	7.257	7.124	7.864	7.469	5.270	5.664	4.143	3.916	5.195	4.497	4.158	3.851	4.679	3.767	3.951	4.597	3.758	3.280
295.0	693.2	791.0	464.6	687.0	833.6	804.9	603.4	298.6	219.7	240.2	268.0	344.9	290.1	425.3	546.3	304.1	234.4	758.3	9999.9	9999.9	9999.9	 1089	41.16	39.77	30.49	22.18	14.91	13.65	11.87	10.81	11.18	8.947	8.905	7.591	7.591	7.066	7.608	8.857	5.005	6.568	6.767	5.792	5.812	4.593	3.264	3.589	5.173	4.170	4.751	4.783	4.775
300.0	876.0	739.4	850.2	791.9	998.0	904.3	685.3	385.3	327.1	297.6	402.2	414.5	352.7	380.4	703.2	716.5	426.6	328.6	819.8	9999.9	9999.9	9999.9	 1142	58.94	42.00	31.42	23.93	19.50	16.30	13.64	14.33	11.23	9.503	12.09	9.024	9.212	9.199	7.786	7.681	7.405	7.410	6.314	5.911	5.324	5.139	4.846	4.057	5.742	3.276	6.073	5.909
305.0	 1172	911.1	835.4	848.9	 1042	 1122	912.8	590.9	497.2	459.3	497.7	514.6	477.3	485.7	590.1	 1027	861.3	487.1	345.4	814.5	9999.9	9999.9	9999.9	 1337	62.60	44.93	36.82	31.47	19.29	15.90	14.18	14.33	12.41	10.61	9.899	7.666	9.111	6.706	8.650	7.319	6.609	7.590	5.345	5.204	5.402	5.569	5.074	4.998	5.872	6.157	4.900
310.0	 1069	878.2	 1025	918.9	903.1	 1165	960.3	728.9	567.4	576.7	681.4	677.0	619.3	595.4	679.0	876.2	 1240	858.4	425.2	289.9	792.6	9999.9	9999.9	9999.9	 1348	74.19	52.08	46.21	32.91	21.08	14.78	16.34	12.46	11.47	13.21	11.31	8.618	10.61	9.442	8.554	7.077	8.150	6.344	7.110	5.394	6.034	5.541	5.645	6.607	6.516	5.527
315.0	 1023	906.3	889.4	995.8	 1073	 1206	 1067	878.8	745.0	732.8	849.9	785.4	757.9	694.2	819.0	896.7	 1088	 1335	658.9	349.4	213.8	766.3	9999.9	9999.9	9999.9	 1175	79.65	57.87	42.72	32.61	23.65	18.05	15.03	14.34	12.94	10.84	9.581	10.86	10.64	7.786	7.919	6.756	8.398	6.933	6.227	6.465	4.063	5.477	4.679	7.358	6.167
320.0	 1053	 1124	 1020	 1046	 1117	 1279	 1325	 1004	898.4	918.6	912.0	885.4	899.1	860.7	905.5	 1022	 1091	 1165	 1225	518.3	217.2	176.5	766.1	9999.9	9999.9	9999.9	 1180	84.09	63.87	46.50	33.79	24.93	21.19	14.79	13.51	12.78	12.22	7.790	10.10	7.703	9.709	8.005	8.651	7.071	6.258	6.646	6.843	5.888	7.641	6.436	6.714
325.0	912.3	 1127	 1165	 1099	 1312	 1501	 1336	 1171	934.8	979.4	 1082	 1047	971.3	973.1	986.4	 1118	 1229	 1162	 1169	904.4	321.6	169.5	157.6	758.4	9999.9	9999.9	9999.9	 1269	89.51	64.93	49.20	36.55	24.13	22.17	18.77	17.20	14.23	10.37	10.38	9.986	7.838	7.435	8.978	8.019	8.245	5.887	6.290	5.745	7.050	7.362	6.117
330.0	869.8	 1219	 1100	 1156	 1210	 1426	 1411	 1281	 1062	 1074	 1132	 1092	 1095	 1024	 1053	 1245	 1286	 1198	992.7	944.5	643.3	220.4	140.0	156.2	752.7	9999.9	9999.9	9999.9	 1258	97.41	70.69	52.22	42.60	27.07	22.05	16.92	14.53	13.39	11.07	9.623	9.362	7.981	6.619	7.213	7.492	7.083	6.368	8.606	7.677	7.858	6.630
335.0	996.9	 1149	978.7	 1112	 1216	 1358	 1512	 1200	 1092	 1140	 1146	 1111	 1144	 1022	 1127	 1226	 1314	 1225	986.8	744.0	779.3	468.2	181.8	135.9	156.1	754.3	9999.9	9999.9	9999.9	 1319	102.9	69.48	57.89	40.85	27.95	20.99	20.22	14.39	11.14	10.33	9.636	9.385	8.249	8.149	6.477	5.856	6.898	8.122	6.943	7.793	6.570
340.0	729.7	826.4	944.8	979.5	 1253	 1429	 1512	 1213	 1066	 1103	 1102	 1152	 1055	994.8	 1211	 1300	 1347	 1272	 1003	703.1	524.3	645.7	354.8	168.6	142.9	162.9	757.1	9999.9	9999.9	9999.9	 1486	103.7	74.82	54.04	43.50	29.94	19.01	18.58	13.56	10.96	8.916	9.729	8.670	8.076	7.455	6.812	6.329	6.463	6.895	8.370	9.015
345.0	846.2	870.1	 1035	 1020	 1252	 1402	 1481	 1164	 1031	 1105	 1078	 1109	 1006	 1005	 1141	 1225	 1346	 1253	 1073	728.8	500.2	452.4	606.3	301.5	180.9	151.5	166.1	766.5	9999.9	9999.9	9999.9	 1628	110.7	79.85	60.71	43.23	30.82	19.61	16.31	12.99	11.01	11.86	8.786	9.228	8.706	7.813	7.296	6.718	6.430	6.892	8.104
350.0	832.3	871.4	967.4	949.8	 1145	 1344	 1308	 1250	 1120	 1003	 1094	 1039	 1004	 1100	 1094	 1191	 1370	 1257	 1065	794.0	520.0	399.0	519.4	587.9	283.5	194.0	170.9	194.0	776.2	9999.9	9999.9	9999.9	 1689	110.8	86.42	57.51	42.82	27.68	21.88	17.73	11.77	12.15	9.497	8.558	7.828	7.943	6.887	7.452	6.585	8.211	7.529
355.0	655.0	759.7	834.8	876.5	 1066	 1094	 1173	 1162	 1086	 1089	 1023	 1018	 1022	 1048	 1082	 1184	 1259	 1206	 1084	786.1	543.9	448.9	397.7	579.8	563.2	288.8	239.8	193.6	198.4	773.6	9999.9	9999.9	9999.9	 1812	110.0	79.86	59.62	38.35	28.13	20.63	15.96	11.84	11.89	9.517	8.674	7.524	7.898	7.307	8.138	8.771	7.881
360.0	470.6	772.2	821.5	839.3	 1007	 1130	 1197	 1141	 1021	987.9	 1019	 1052	 1029	 1011	 1076	 1128	 1233	 1183	 1013	826.3	592.6	507.5	466.6	463.5	668.6	518.0	318.9	262.6	212.6	210.2	783.8	9999.9	9999.9	9999.9	 1683	114.3	78.03	53.57	38.51	24.61	18.61	12.41	11.76	9.211	9.662	9.221	7.315	8.891	7.900	7.424	8.059
365.0	502.8	654.6	727.7	777.7	900.1	 1042	 1122	 1019	996.6	 1066	 1027	 1084	950.0	984.4	 1065	 1139	 1180	 1166	 1023	826.4	642.5	568.6	538.9	511.2	522.1	700.8	513.5	345.4	273.1	215.5	207.2	777.0	9999.9	9999.9	9999.9	 1869	109.5	75.03	54.47	39.55	24.86	18.13	15.55	13.61	11.26	8.117	8.060	11.03	8.993	7.329	8.906
370.0	475.7	697.9	680.1	743.5	 1013	984.4	 1089	 1065	 1036	 1006	 1031	966.2	971.2	 1043	 1071	 1149	 1101	 1110	 1014	861.0	697.5	637.2	600.9	562.2	574.5	629.8	739.3	468.9	322.6	271.9	218.0	200.3	779.0	9999.9	9999.9	9999.9	 1873	102.1	74.60	49.97	34.09	24.68	16.77	12.08	10.98	10.17	9.385	8.635	8.052	9.076	8.048
375.0	484.4	570.4	744.0	752.7	942.3	995.7	 1121	 1034	970.6	 1064	974.9	976.6	983.7	985.5	 1070	 1123	 1100	 1102	 1061	871.6	786.3	731.5	693.8	635.4	643.6	622.9	704.9	729.3	468.1	336.9	268.0	206.0	200.1	776.3	9999.9	9999.9	9999.9	 1972	101.5	67.56	45.95	36.20	23.34	17.90	12.79	13.82	9.702	7.705	8.077	6.965	6.841
380.0	643.6	659.3	654.0	782.9	815.4	 1071	 1066	 1083	988.9	 1052	 1058	985.7	 1071	965.9	 1059	 1124	 1156	 1099	 1019	920.7	791.1	757.5	735.9	730.4	709.0	672.0	652.1	754.6	683.8	428.7	347.9	262.9	209.1	197.9	783.8	9999.9	9999.9	9999.9	 1803	97.30	64.49	45.14	32.55	24.36	15.17	12.70	12.50	9.405	9.078	8.629	8.342
385.0	491.5	626.0	747.1	813.8	864.0	 1006	 1184	 1066	 1049	 1116	 1096	 1062	 1027	 1013	 1057	 1122	 1145	 1079	 1013	920.9	871.3	833.9	818.1	799.3	793.2	761.5	691.1	682.8	787.8	636.0	435.6	331.2	270.8	220.6	206.1	777.2	9999.9	9999.9	9999.9	 1906	89.71	66.09	40.82	28.39	22.60	16.27	11.65	10.74	7.484	7.969	8.789
390.0	498.4	530.7	758.8	822.1	929.6	 1149	 1104	 1083	 1063	 1121	 1188	 1032	 1076	 1068	 1104	 1125	 1137	 1126	 1040	 1020	888.6	902.3	880.2	898.1	872.4	847.4	773.7	727.3	718.5	785.5	592.0	413.4	324.1	274.6	220.1	201.2	773.5	9999.9	9999.9	9999.9	 1801	86.30	63.43	41.63	29.36	21.50	16.28	12.70	12.96	9.544	9.009
395.0	427.1	542.8	667.4	781.7	957.5	 1107	 1125	 1079	 1221	 1138	 1148	 1149	 1083	 1120	 1160	 1153	 1193	 1173	 1072	 1022	944.6	954.5	899.8	946.9	936.1	935.0	859.2	804.7	749.4	770.1	775.6	572.3	416.3	356.1	278.8	215.2	203.3	763.2	9999.9	9999.9	9999.9	 1787	83.61	60.47	39.70	28.57	22.21	16.88	12.92	13.30	8.985
400.0	522.0	586.1	691.4	841.0	951.6	 1168	 1204	 1230	 1147	 1179	 1124	 1169	 1168	 1119	 1162	 1248	 1159	 1182	 1083	 1042	 1004	987.4	 1004	998.1	 1010	954.8	934.7	910.4	823.5	757.4	827.5	742.9	527.3	429.1	368.6	261.3	203.5	197.3	749.7	9999.9	9999.9	9999.9	 1592	78.94	53.02	37.50	24.62	20.53	13.34	13.70	10.87
405.0	440.2	618.7	627.1	825.0	 1052	 1171	 1118	 1190	 1192	 1263	 1167	 1205	 1208	 1211	 1257	 1227	 1183	 1176	 1126	 1058	 1010	 1036	 1029	 1044	 1050	 1033	 1018	972.6	890.8	849.1	830.6	829.6	736.6	528.8	437.5	348.6	260.6	198.0	180.7	750.1	9999.9	9999.9	9999.9	 1433	70.45	48.34	35.41	23.84	17.58	15.27	12.30
410.0	427.2	466.8	799.3	841.3	964.8	 1055	 1187	 1243	 1233	 1207	 1222	 1223	 1256	 1212	 1306	 1266	 1290	 1187	 1173	 1110	 1057	 1054	 1070	 1071	 1097	 1077	 1057	995.3	967.7	919.2	890.6	816.8	859.5	690.5	530.7	424.8	316.6	241.7	191.9	173.4	723.4	9999.9	9999.9	9999.9	 1350	64.88	46.48	30.33	24.16	18.28	14.78
415.0	411.9	535.9	788.2	839.4	 1036	 1134	 1276	 1224	 1236	 1187	 1271	 1268	 1184	 1279	 1305	 1342	 1290	 1243	 1151	 1117	 1052	 1076	 1093	 1096	 1132	 1104	 1064	 1076	991.5	971.0	969.3	833.1	829.4	853.1	658.6	475.0	375.6	283.8	216.1	169.5	165.3	727.8	9999.9	9999.9	9999.9	 1332	62.48	48.20	30.60	23.99	17.82
420.0	420.2	550.8	842.0	825.1	924.0	 1165	 1301	 1236	 1177	 1229	 1269	 1340	 1244	 1325	 1365	 1403	 1336	 1223	 1169	 1058	 1040	 1056	 1116	 1116	 1099	 1109	 1104	 1084	 1056	 1004	 1009	878.6	823.3	848.8	803.3	581.3	429.7	344.1	254.8	194.0	148.5	157.0	717.1	9999.9	9999.9	9999.9	 1187	61.29	39.01	29.97	24.34
425.0	437.1	474.3	694.8	856.0	948.2	 1188	 1197	 1224	 1195	 1242	 1233	 1223	 1311	 1349	 1353	 1397	 1394	 1227	 1143	 1073	 1006	 1027	 1058	 1101	 1102	 1106	 1135	 1112	 1096	 1053	 1025	941.7	868.3	840.4	837.2	731.3	506.3	376.6	303.0	223.1	175.8	138.7	138.0	706.4	9999.9	9999.9	9999.9	 1039	60.09	38.85	26.14
430.0	458.8	554.8	788.5	874.7	882.4	 1054	 1193	 1304	 1270	 1251	 1302	 1310	 1321	 1357	 1395	 1417	 1365	 1244	 1122	 1023	 1017	990.9	 1033	 1056	 1106	 1102	 1083	 1089	 1056	 1049	 1044	964.6	928.4	832.4	802.6	793.9	601.9	442.7	345.1	263.5	206.4	147.9	115.6	132.5	704.0	9999.9	9999.9	9999.9	921.6	57.09	36.72
435.0	326.9	542.1	596.9	891.5	 1009	 1168	 1163	 1186	 1201	 1213	 1336	 1350	 1334	 1347	 1413	 1430	 1395	 1270	 1097	 1074	989.8	985.3	 1048	 1031	 1087	 1084	 1091	 1100	 1072	 1072	 1058	985.0	953.8	887.0	820.6	758.1	691.6	518.8	372.3	300.5	228.8	186.6	140.6	111.7	124.3	696.9	 9805	9999.9	9999.9	918.8	52.90
440.0	369.2	608.4	640.2	864.7	880.4	 1209	 1142	 1165	 1196	 1172	 1180	 1294	 1383	 1411	 1417	 1419	 1324	 1279	 1117	 1023	991.7	946.7	996.6	 1028	 1027	 1080	 1092	 1094	 1053	 1082	 1060	976.7	947.4	915.5	835.0	726.7	672.7	602.7	434.4	335.1	260.8	206.6	165.5	133.7	98.76	124.2	683.6	 9835	9999.9	9999.9	812.8
445.0	332.1	598.5	706.5	861.5	723.9	 1055	 1138	 1097	 1186	 1209	 1252	 1271	 1269	 1407	 1403	 1407	 1397	 1244	 1074	973.9	933.6	907.6	968.2	971.4	994.0	 1047	 1011	 1015	 1037	 1024	 1039	961.9	963.5	904.0	839.4	752.7	668.3	613.3	532.9	369.1	293.9	230.5	185.7	147.4	115.7	102.1	119.9	684.5	9999.9	9999.9	9999.9
450.0	441.7	495.5	543.8	794.0	852.4	986.3	 1007	 1066	 1027	 1156	 1108	 1221	 1335	 1332	 1418	 1398	 1363	 1197	 1071	945.9	883.0	889.3	915.9	911.8	966.6	957.5	969.2	987.1	992.2	 1016	993.5	957.2	931.1	898.3	845.6	759.5	651.3	555.2	550.4	432.9	314.8	257.4	223.5	169.7	133.7	110.1	83.48	110.6	682.5	 9357	9999.9
455.0	391.5	403.8	587.6	833.3	750.7	849.7	 1024	 1018	906.7	 1072	 1056	 1141	 1259	 1314	 1312	 1350	 1279	 1128	 1038	892.3	856.8	853.3	858.5	855.8	910.5	927.9	942.7	941.4	941.2	959.0	947.3	910.4	887.5	865.9	816.3	740.1	647.8	538.9	499.4	459.6	364.9	276.2	232.5	187.6	154.9	124.4	96.55	79.69	108.0	650.1	 9341
460.0	339.3	495.1	536.2	724.6	784.1	808.7	839.2	946.2	 1013	 1070	 1044	 1132	 1161	 1235	 1269	 1254	 1210	 1114	983.6	865.6	793.5	791.8	808.5	824.2	852.0	863.4	861.3	876.9	904.6	891.2	900.2	855.3	829.2	821.5	776.3	727.1	630.2	554.0	479.7	439.2	411.5	309.6	234.9	200.7	157.5	135.4	111.0	91.31	77.14	105.7	644.3
465.0	319.8	535.2	367.0	498.6	670.2	810.1	877.2	810.8	929.7	 1000	957.3	 1045	 1089	 1159	 1246	 1220	 1182	 1026	919.3	788.3	755.3	737.8	755.7	761.3	767.2	790.5	803.2	805.1	823.9	830.0	837.2	806.2	794.8	785.2	768.0	691.3	613.6	545.5	463.9	416.2	399.6	341.5	255.9	213.1	182.9	154.9	127.3	96.59	83.12	76.00	98.73
470.0	224.6	413.0	505.7	565.1	671.7	744.2	772.7	790.9	932.0	900.4	885.9	935.6	 1064	 1064	 1107	 1157	 1074	992.2	855.8	776.8	716.0	695.9	700.2	696.0	703.3	722.5	744.8	770.5	746.0	789.4	774.4	755.4	755.6	741.4	699.3	668.4	594.7	515.0	451.7	396.7	354.0	341.9	288.9	225.7	187.4	154.2	130.5	117.0	96.15	78.45	67.64
475.0	264.2	331.9	417.3	475.8	558.6	624.9	708.0	699.0	767.2	791.6	841.5	897.5	927.6	971.4	 1069	 1106	 1037	930.0	794.8	700.3	651.9	655.5	649.6	652.1	653.7	676.6	679.3	687.8	694.2	714.1	713.7	683.2	690.1	698.0	649.6	628.8	554.2	501.6	439.8	374.4	331.7	313.9	293.5	250.9	200.7	168.0	139.7	118.9	97.02	80.84	66.56
480.0	245.0	396.1	400.2	500.3	451.0	653.6	719.5	742.2	653.3	742.1	828.1	850.6	893.3	950.6	936.2	985.1	938.2	846.3	729.4	705.1	629.5	590.5	581.6	616.5	595.0	626.5	632.6	635.6	658.1	661.1	658.5	629.2	635.5	610.9	624.8	579.4	511.2	467.5	421.6	368.1	330.3	290.5	280.9	267.4	203.8	175.5	148.4	131.2	109.7	87.62	76.43
485.0	246.5	280.4	433.9	405.7	571.5	627.7	670.7	692.4	657.3	740.3	752.9	783.2	877.5	862.4	893.5	948.1	891.3	777.4	704.4	613.7	600.2	547.5	559.1	549.0	576.3	592.1	584.2	578.2	618.6	595.7	618.0	593.7	590.8	596.5	589.9	538.2	479.7	449.8	400.7	353.7	325.6	284.9	258.8	256.7	232.7	179.8	152.2	132.3	118.0	93.23	79.63
490.0	215.7	302.0	355.1	429.5	467.9	437.3	600.4	586.2	642.8	644.3	706.3	727.2	765.8	768.4	870.6	883.2	868.5	756.6	674.7	600.2	526.7	507.1	516.2	515.6	522.8	538.6	524.0	563.6	554.6	571.3	564.1	549.0	553.9	557.4	548.5	519.3	479.0	431.1	382.7	346.1	321.7	285.3	253.0	227.9	232.7	205.1	154.4	140.5	120.4	102.9	82.78
495.0	186.9	293.7	413.0	419.7	432.0	508.9	556.0	570.0	603.2	668.7	693.5	673.5	747.2	773.4	831.5	803.6	791.8	710.2	624.5	557.6	500.2	510.1	505.1	493.4	484.7	484.7	500.8	489.6	503.6	522.5	519.6	497.9	500.7	520.6	510.7	478.1	441.4	401.9	367.5	328.6	303.9	280.4	241.1	225.2	222.4	215.4	177.1	139.5	129.2	104.6	96.55
500.0	216.0	276.5	231.3	324.6	472.0	421.2	554.0	547.7	612.5	610.6	648.5	670.8	703.8	725.0	726.4	774.8	742.9	650.9	603.5	500.8	500.1	461.2	456.0	466.8	464.8	448.8	479.9	458.4	466.8	477.6	482.6	469.6	483.0	491.1	481.0	436.4	410.9	380.8	341.8	322.6	284.3	256.2	243.2	219.3	204.1	200.9	189.4	157.6	124.6	105.5	101.0
505.0	142.6	302.3	296.3	314.9	456.8	407.1	422.5	533.0	485.1	596.8	597.1	597.4	661.7	692.2	668.2	677.0	679.3	580.0	549.3	472.9	442.5	415.4	413.7	430.2	402.0	426.1	426.3	420.3	439.4	431.1	418.4	440.6	433.5	436.3	433.8	402.3	398.7	359.7	319.9	302.2	274.6	252.4	228.8	208.9	188.2	176.1	174.5	164.1	126.5	107.7	97.41
510.0	153.4	256.2	223.2	335.7	261.5	417.4	429.5	471.4	472.0	542.6	554.9	557.9	586.0	620.1	627.3	600.6	619.8	527.8	516.1	412.3	400.9	399.4	397.6	373.6	385.7	373.1	389.6	387.4	393.4	372.6	394.8	392.6	400.3	418.3	395.5	386.7	347.9	328.9	300.0	274.6	243.6	231.2	210.5	189.8	179.5	161.6	161.8	162.3	134.8	114.6	96.98
515.0	138.7	172.8	267.9	279.8	272.6	351.1	412.3	347.0	439.2	397.0	473.7	488.2	529.0	559.9	578.8	547.8	529.0	512.5	425.8	396.4	358.0	363.9	358.3	350.0	339.6	339.1	336.3	343.2	349.2	343.5	353.4	367.0	363.8	367.5	363.6	357.6	317.2	288.9	269.6	252.2	239.7	203.9	189.1	191.9	170.3	156.8	148.6	145.3	146.6	115.5	90.91
520.0	184.5	231.8	214.6	214.5	227.0	325.9	354.7	371.2	370.5	423.3	406.9	438.2	475.2	525.2	523.8	491.1	509.3	468.3	411.7	369.5	337.4	334.0	318.9	313.4	311.1	316.4	303.8	324.1	296.2	319.4	320.2	322.3	323.7	327.1	320.0	314.6	286.9	274.6	255.7	232.9	214.3	199.8	187.2	173.4	165.7	155.4	137.4	129.4	128.8	124.2	99.50
525.0	89.83	195.2	174.2	262.0	175.1	298.2	330.8	409.3	340.6	383.9	353.2	401.8	443.6	477.8	490.7	449.6	472.7	432.2	379.1	333.1	296.6	292.3	277.7	283.3	288.7	271.8	290.5	279.7	276.8	286.8	294.3	303.0	296.1	296.6	292.3	295.8	269.1	250.9	237.1	217.2	196.8	178.2	174.4	156.8	156.4	134.8	120.9	126.4	106.9	115.4	103.6
530.0	133.2	199.2	225.7	209.6	224.7	279.0	246.8	308.9	282.4	316.2	334.8	379.9	401.8	442.4	442.6	443.9	422.2	373.0	353.2	283.8	275.0	257.9	273.7	244.2	259.8	241.5	245.8	249.0	242.4	256.1	259.7	252.6	264.8	274.3	265.4	250.7	225.2	222.0	203.5	195.9	175.2	173.7	153.8	150.4	134.6	125.4	117.5	111.8	109.6	100.1	108.4
535.0	85.08	62.08	191.8	141.9	222.4	188.1	221.6	301.1	307.1	299.8	319.5	329.6	337.1	407.2	445.8	391.4	381.1	345.4	331.1	294.1	261.3	242.1	250.8	233.3	213.6	226.5	228.7	223.2	232.5	227.9	225.5	223.5	246.7	243.4	222.5	233.7	215.4	205.1	186.7	174.6	158.8	150.4	141.9	140.8	126.0	115.9	111.1	100.0	92.74	87.33	98.99
540.0	82.17	103.6	132.5	164.5	188.7	221.9	264.3	228.0	250.2	277.6	290.9	312.4	284.9	335.8	397.6	380.5	345.7	319.1	298.8	255.0	230.3	228.1	217.3	197.7	191.6	197.9	195.4	190.8	208.8	201.0	204.3	203.4	204.9	213.8	215.7	200.6	187.5	176.0	168.7	159.7	146.1	143.1	131.0	127.4	111.6	106.1	100.4	95.54	88.25	79.70	79.77
545.0	93.59	117.5	125.3	185.5	212.9	188.7	179.9	232.3	217.2	248.3	264.9	295.8	300.0	311.3	377.2	423.7	329.3	276.9	244.0	222.1	214.8	196.1	198.0	179.1	182.1	173.1	178.2	174.3	175.6	171.0	172.6	175.1	181.6	194.5	195.3	183.8	170.1	154.9	144.5	140.2	131.6	126.1	119.1	108.2	102.7	101.8	89.74	84.83	81.44	72.74	75.48
550.0	149.6	69.70	150.6	141.8	150.6	169.1	195.5	189.1	193.2	194.1	269.6	271.2	287.1	265.8	306.2	639.6	382.7	253.5	227.6	216.5	191.7	178.8	175.2	179.8	159.9	170.0	157.6	163.3	160.5	163.2	173.1	166.7	164.6	169.3	162.8	166.4	151.7	142.9	129.1	129.7	115.7	111.4	106.4	103.1	94.32	86.17	84.82	84.26	78.35	73.21	64.26
