Sample:	'SLABO1-5-5-320
File name:	2N1.FD3
Run Date:	15:46:10, 08/17/2022
Operator:	Administrator
Comment:	'

Instrument
Model:	F-7000 FL Spectrophotometer
Serial Number:	2354-007
ROM Version:	5J14000 06

Instrument Parameters
Measurement type:	3-D Scan
Data mode:	Fluorescence
EX  Start WL:	200.0 nm
EX  End WL:	450.0 nm
EX Sampling Interval:	5.0 nm
EM  Start WL:	280.0 nm
EM  End WL:	550.0 nm
EM Sampling Interval:	5.0 nm
Scan speed:	12000 nm/min
EX Slit:	5.0 nm
EM Slit:	5.0 nm
PMT Voltage:	700 V
Response:	Auto 
Corrected spectra:	Off
Shutter control:	On
Contour interval:	25.000

Peak integration
Integration method:	Rectangular
Sensitivity:	1
Threshold:	1.000

Peaks
No.	ApexEX/EM(nm)	Height(Data)
1	205.0/315.0	845.7
2	205.0/360.0	840.2
3	205.0/390.0	666.0
4	205.0/465.0	445.1
5	205.0/500.0	295.9
6	210.0/335.0	835.3
7	210.0/365.0	651.5
8	210.0/395.0	660.0
9	210.0/450.0	588.5
10	210.0/470.0	447.0
11	210.0/505.0	267.4
12	210.0/515.0	264.0
13	210.0/545.0	181.0
14	215.0/370.0	736.9
15	215.0/380.0	659.0
16	215.0/485.0	339.7
17	215.0/520.0	194.8
18	220.0/315.0	672.1
19	220.0/345.0	730.2
20	220.0/360.0	652.8
21	220.0/395.0	725.2
22	220.0/490.0	377.0
23	220.0/515.0	298.4
24	220.0/535.0	186.1
25	225.0/305.0	713.6
26	225.0/350.0	725.9
27	225.0/400.0	732.0
28	225.0/410.0	710.4
29	225.0/495.0	352.6
30	225.0/510.0	271.9
31	230.0/340.0	729.2
32	230.0/375.0	702.4
33	230.0/405.0	740.0
34	230.0/425.0	737.8
35	235.0/345.0	659.6
36	235.0/360.0	653.5
37	235.0/420.0	725.8
38	235.0/430.0	728.1
39	235.0/490.0	450.3
40	235.0/510.0	308.2
41	235.0/525.0	249.7
42	240.0/395.0	754.7
43	240.0/410.0	759.7
44	240.0/425.0	756.8
45	240.0/460.0	613.6
46	240.0/495.0	409.2
47	240.0/520.0	255.8
48	245.0/335.0	532.2
49	245.0/355.0	579.0
50	245.0/380.0	655.3
51	245.0/400.0	776.4
52	245.0/415.0	789.8
53	245.0/440.0	732.0
54	245.0/475.0	540.2
55	250.0/365.0	587.2
56	250.0/375.0	681.7
57	250.0/395.0	770.9
58	250.0/410.0	784.5
59	250.0/420.0	788.0
60	250.0/460.0	674.3
61	255.0/335.0	506.8
62	260.0/285.0	208.3
63	260.0/400.0	748.9
64	260.0/415.0	758.5
65	265.0/325.0	407.4
66	265.0/375.0	595.0
67	265.0/395.0	721.7
68	265.0/410.0	790.0
69	270.0/435.0	849.2
70	270.0/450.0	757.1
71	270.0/505.0	435.9
72	275.0/305.0	722.8
73	275.0/335.0	446.2
74	275.0/430.0	862.2
75	275.0/445.0	801.4
76	280.0/310.0	842.7
77	280.0/395.0	697.0
78	280.0/415.0	798.2
79	285.0/315.0	793.8
80	290.0/320.0	695.3
81	290.0/520.0	299.3
82	295.0/325.0	600.4
83	300.0/335.0	581.4
84	305.0/340.0	574.8
85	310.0/345.0	559.3
86	310.0/440.0	602.7
87	315.0/350.0	551.7
88	315.0/420.0	674.5
89	320.0/360.0	575.7
90	320.0/415.0	687.8
91	325.0/365.0	645.6
92	330.0/370.0	678.3
93	330.0/415.0	675.6
94	335.0/375.0	635.3
95	340.0/385.0	640.3
96	345.0/390.0	638.3
97	350.0/395.0	620.9
98	355.0/405.0	586.4
99	360.0/410.0	606.5
100	365.0/415.0	589.7
101	370.0/425.0	544.6
102	375.0/430.0	519.2
103	395.0/305.0	15.69
104	395.0/455.0	324.4
105	405.0/310.0	13.49
106	405.0/330.0	17.41
107	415.0/320.0	14.46
108	420.0/490.0	168.0
109	430.0/500.0	134.5
110	435.0/330.0	12.32
111	440.0/515.0	100.8

Data Points
	200.0	205.0	210.0	215.0	220.0	225.0	230.0	235.0	240.0	245.0	250.0	255.0	260.0	265.0	270.0	275.0	280.0	285.0	290.0	295.0	300.0	305.0	310.0	315.0	320.0	325.0	330.0	335.0	340.0	345.0	350.0	355.0	360.0	365.0	370.0	375.0	380.0	385.0	390.0	395.0	400.0	405.0	410.0	415.0	420.0	425.0	430.0	435.0	440.0	445.0	450.0
280.0	94.31	26.45	41.18	57.75	70.75	64.14	49.51	20.43	13.98	37.23	58.71	60.37	45.86	16.25	20.28	 4034	9999.9	 7612	191.8	40.92	35.12	34.32	30.44	19.95	21.46	18.58	18.37	16.95	17.06	14.29	13.27	16.37	16.06	11.00	13.53	12.34	12.47	9.617	9.362	8.277	7.998	5.988	6.005	5.416	3.643	4.722	3.823	5.133	4.167	3.630	2.916
285.0	266.9	175.3	169.6	161.7	172.9	212.5	171.8	102.8	56.86	74.45	111.3	125.0	208.3	109.6	62.46	302.6	 9231	9999.9	9999.9	 1315	58.45	52.73	44.46	35.53	25.97	23.66	24.74	22.08	19.60	17.11	17.21	16.88	13.00	15.27	15.20	12.93	12.27	9.939	10.32	8.921	8.430	8.081	7.119	4.821	5.963	4.499	4.021	3.639	4.495	3.601	3.005
290.0	468.7	455.1	398.2	302.6	402.6	411.2	284.5	156.5	94.51	126.2	171.0	169.8	201.8	325.9	179.7	127.4	687.4	9999.9	9999.9	9999.9	 1721	78.40	68.39	59.44	43.30	34.57	26.04	24.15	18.03	19.63	18.20	16.98	16.56	15.63	16.20	16.13	13.61	12.42	11.63	11.03	8.981	9.571	7.659	6.560	5.646	5.301	4.788	4.711	5.272	5.230	6.171
295.0	685.9	709.4	552.2	541.1	633.3	499.2	424.1	260.5	152.6	189.0	204.1	201.8	183.9	341.0	470.3	251.6	207.4	791.8	9999.9	9999.9	9999.9	 2175	94.68	78.62	68.44	46.83	40.44	32.71	29.38	23.52	20.77	20.43	20.75	17.89	17.23	16.15	13.78	14.50	12.33	10.58	9.994	10.60	9.801	8.321	5.966	6.821	5.725	7.083	6.033	7.754	6.176
300.0	916.0	784.9	571.8	655.9	647.8	627.0	508.2	294.1	203.7	211.9	213.0	233.0	217.8	273.7	500.6	525.6	292.9	238.1	837.6	9999.9	9999.9	9999.9	 2332	123.0	92.50	75.61	52.95	44.87	36.27	28.71	25.63	24.54	22.69	24.29	19.84	18.30	16.49	16.03	13.39	12.61	10.79	11.74	10.88	9.345	7.470	6.903	5.846	6.916	7.911	7.297	5.452
305.0	981.6	760.8	603.8	654.0	602.0	713.6	564.5	357.5	274.3	234.1	283.3	260.4	295.3	296.5	363.2	722.8	568.6	236.1	231.0	828.7	9999.9	9999.9	9999.9	 2736	147.2	112.7	82.93	73.46	49.36	36.66	30.79	27.96	27.23	26.83	20.34	20.58	19.58	16.84	12.63	15.69	10.78	11.30	10.38	10.56	8.824	8.106	7.003	7.515	7.303	7.348	6.591
310.0	915.4	784.5	706.1	727.8	635.5	687.9	583.5	374.8	284.0	309.3	326.6	307.4	281.9	300.3	333.4	445.3	842.7	450.2	220.0	203.7	831.4	9999.9	9999.9	9999.9	 2830	150.9	124.3	102.9	78.55	50.30	44.80	35.83	31.58	31.92	26.42	23.14	20.70	19.08	16.63	13.88	11.06	13.49	11.31	10.84	9.387	8.665	8.156	6.664	7.889	7.409	7.244
315.0	731.1	845.7	804.6	609.9	672.1	646.3	609.7	395.4	362.4	353.9	383.3	372.2	338.7	310.3	352.0	402.7	526.5	793.8	348.9	189.6	202.0	864.9	9999.9	9999.9	9999.9	 2582	171.3	124.7	104.6	76.25	55.37	41.16	40.16	32.57	25.44	23.05	21.11	19.54	17.28	16.74	13.25	11.53	12.03	11.39	11.79	11.38	8.895	9.645	6.967	7.926	7.959
320.0	792.1	694.0	776.7	662.4	663.8	652.9	579.1	424.4	371.0	374.9	406.6	427.3	375.4	338.8	375.1	414.3	380.5	559.0	695.3	277.9	161.3	205.4	883.1	9999.9	9999.9	9999.9	 2543	183.8	147.7	111.7	87.35	56.34	43.47	38.05	30.84	30.36	23.82	24.81	20.53	16.35	14.64	13.58	12.30	14.46	11.01	11.33	9.712	8.883	8.530	8.638	7.277
325.0	867.6	739.2	778.4	694.7	528.6	618.4	665.6	506.2	441.8	415.0	446.2	438.6	401.1	407.4	403.2	412.3	421.7	399.2	590.1	600.4	219.6	166.0	214.6	897.3	9999.9	9999.9	9999.9	 2800	212.0	148.9	122.8	83.01	57.28	52.58	43.06	34.88	30.03	23.13	19.13	15.67	14.27	16.27	14.67	11.45	11.95	10.76	11.33	8.248	8.816	9.414	8.485
330.0	823.8	723.1	833.2	705.1	732.1	648.0	636.4	595.1	423.0	502.5	456.2	480.1	446.5	393.1	395.2	404.0	409.3	367.2	376.2	581.2	501.4	204.2	173.9	217.0	887.9	9999.9	9999.9	9999.9	 2860	227.3	166.1	122.7	93.90	65.72	52.29	40.27	30.83	27.39	22.05	20.77	15.83	17.41	16.75	12.24	11.90	10.73	11.31	12.32	9.010	9.561	7.930
335.0	641.0	672.4	835.3	703.7	622.5	583.1	697.5	536.0	502.4	532.2	475.5	506.8	450.6	372.9	397.2	446.2	437.0	404.6	351.5	335.1	581.4	413.7	185.7	167.0	213.9	909.5	9999.9	9999.9	9999.9	 3023	245.5	172.5	131.6	98.30	64.95	52.74	37.35	29.84	24.32	21.27	17.85	15.81	17.28	14.21	12.14	12.70	12.99	11.83	9.493	9.842	8.662
340.0	777.4	740.0	734.9	505.5	598.9	663.0	729.2	525.0	501.8	481.6	436.7	453.8	419.6	405.4	420.0	438.5	432.4	428.2	365.5	294.7	334.2	574.8	324.6	182.2	169.8	221.8	893.8	9999.9	9999.9	9999.9	 3446	260.8	185.0	133.7	98.86	67.57	48.69	36.28	28.94	24.98	19.72	18.97	17.88	13.03	13.86	11.92	12.29	11.08	10.83	9.904	8.135
345.0	633.1	692.9	614.5	543.9	730.2	649.0	638.8	659.6	532.1	466.4	495.1	472.0	432.8	402.6	411.6	419.8	438.1	421.7	401.2	318.3	282.2	341.3	559.3	282.1	185.9	185.6	237.3	892.0	9999.9	9999.9	9999.9	 3804	274.1	194.2	136.8	101.8	72.71	47.75	39.24	26.87	22.36	20.79	16.60	14.78	12.40	12.79	12.81	11.29	10.24	11.50	10.45
350.0	762.4	666.6	565.4	660.6	656.4	725.9	632.8	628.6	549.0	527.4	506.7	474.9	406.8	418.2	425.1	454.0	451.1	417.0	396.7	337.6	294.7	270.0	438.2	551.7	267.6	203.0	202.8	240.4	904.9	9999.9	9999.9	9999.9	 3954	290.9	203.5	135.5	97.16	74.31	47.23	35.75	25.89	23.34	19.25	17.86	14.90	16.17	13.45	10.92	10.92	10.96	9.198
355.0	713.5	646.0	627.9	591.8	576.9	617.0	568.2	609.9	521.3	579.0	573.5	447.6	457.5	417.0	408.6	475.5	451.7	418.7	429.2	385.9	348.7	307.7	323.0	508.0	518.1	279.5	212.8	211.3	260.5	904.5	9999.9	9999.9	9999.9	 4171	287.9	208.5	126.9	102.0	63.11	42.27	35.05	27.57	23.05	17.39	17.26	16.09	12.29	12.68	11.72	10.68	10.68
360.0	725.3	840.2	585.5	562.0	652.8	586.8	627.0	653.5	569.2	566.6	568.1	470.2	469.5	440.7	446.0	477.6	470.9	474.1	439.7	385.8	364.5	351.6	335.7	376.5	575.7	481.5	277.7	237.9	224.3	273.2	913.4	9999.9	9999.9	9999.9	 3928	280.9	179.4	124.3	89.78	62.45	40.81	31.64	23.54	19.70	16.62	13.12	15.93	12.80	11.61	10.01	10.73
365.0	628.7	555.7	651.5	576.9	587.9	623.0	608.6	597.5	535.6	538.9	587.2	516.9	484.6	506.1	509.2	485.7	499.6	487.7	449.7	447.9	395.8	396.2	402.3	394.2	439.4	645.6	454.4	301.1	258.0	238.2	260.9	903.1	9999.9	9999.9	9999.9	 4452	275.6	184.4	114.9	84.04	57.21	41.41	32.23	24.28	18.66	17.25	15.41	12.83	13.77	10.01	10.72
370.0	636.4	557.0	648.3	736.9	650.2	669.4	604.6	655.6	593.0	567.8	566.2	549.1	500.9	511.4	521.5	519.3	501.7	486.7	521.2	495.4	435.4	446.9	452.0	432.4	435.6	495.5	678.3	433.5	321.1	269.8	243.8	260.2	880.4	9999.9	9999.9	9999.9	 4336	257.4	173.4	111.7	81.73	51.17	38.76	29.13	23.82	17.73	17.94	12.56	12.24	12.43	10.74
375.0	573.6	600.2	564.3	528.9	605.9	651.9	702.4	661.5	620.5	648.9	681.7	567.4	518.9	595.0	543.1	562.9	559.5	561.4	533.0	541.4	500.8	494.0	497.0	503.9	484.8	472.2	575.6	635.3	399.7	312.3	249.8	224.8	247.7	905.4	9999.9	9999.9	9999.9	 4676	232.9	162.1	101.2	75.82	50.09	37.40	30.66	22.42	20.07	16.16	12.86	11.59	10.72
380.0	435.4	607.2	655.1	659.0	599.3	662.4	606.9	673.2	626.4	655.3	611.2	624.3	588.7	559.4	570.5	601.8	594.3	628.0	539.5	537.4	537.3	531.8	538.2	518.0	523.5	492.4	525.7	621.9	581.4	370.4	301.1	248.9	222.1	254.0	894.8	9999.9	9999.9	9999.9	 4170	230.3	153.5	102.6	69.99	51.44	34.70	23.59	19.58	15.54	13.40	13.98	11.73
385.0	693.5	604.3	581.7	609.0	580.3	547.1	674.4	712.6	705.3	644.4	640.4	620.1	603.9	616.3	633.2	629.1	591.0	613.3	589.4	594.6	546.2	549.7	578.4	545.4	578.8	551.6	526.4	516.0	640.3	517.9	336.9	299.5	251.8	216.8	255.2	875.9	9999.9	9999.9	9999.9	 4312	220.5	142.0	94.18	69.75	45.24	34.45	25.10	20.26	16.52	15.53	12.24
390.0	601.7	666.0	585.2	591.2	720.6	720.5	703.6	726.3	711.9	660.3	715.8	654.7	612.7	659.7	628.4	655.4	664.3	652.5	623.5	581.2	567.7	587.5	587.9	596.7	596.7	576.0	562.7	532.3	543.1	638.3	471.8	327.8	275.1	233.0	223.5	238.3	856.4	9999.9	9999.9	9999.9	 4208	196.4	133.6	86.70	59.17	43.15	30.58	24.39	18.84	15.30	13.26
395.0	498.4	549.9	660.0	512.6	725.2	681.3	730.8	732.6	754.7	740.8	770.9	714.3	645.6	721.7	649.3	657.7	697.0	645.8	662.1	593.6	612.8	629.0	612.6	634.3	624.7	620.4	615.4	551.9	533.6	564.3	620.9	432.0	325.9	265.0	244.9	208.4	231.2	849.9	9999.9	9999.9	9999.9	 4184	186.0	123.2	86.78	56.88	40.15	27.80	23.04	20.67	15.29
400.0	456.7	505.4	577.4	468.3	548.0	732.0	692.4	738.6	735.7	776.4	759.1	697.9	748.9	676.4	726.6	671.5	683.9	695.5	635.6	623.5	631.0	633.9	623.7	641.0	665.7	638.8	617.9	594.8	558.2	521.2	584.4	566.5	390.6	324.4	262.9	233.1	197.3	220.8	826.9	9999.9	9999.9	9999.9	 3691	175.3	115.2	76.08	56.79	40.19	27.50	22.73	16.08
405.0	474.5	501.1	533.1	566.5	627.3	635.3	740.0	718.7	759.0	754.6	763.5	726.4	723.8	696.6	717.0	725.0	696.7	681.8	667.7	657.6	641.2	633.8	629.7	655.4	677.2	660.1	656.6	610.3	579.7	528.0	521.7	586.4	534.0	363.3	309.5	267.6	203.1	183.5	212.6	817.0	9999.9	9999.9	9999.9	 3304	161.9	105.8	74.51	55.74	37.11	26.30	18.51
410.0	469.9	472.3	625.2	598.4	681.3	710.4	636.7	751.2	759.7	752.1	784.5	762.9	728.4	790.0	731.0	739.4	713.6	718.4	685.6	654.4	651.0	641.7	658.8	656.8	676.5	667.2	661.0	633.9	610.5	577.4	520.5	526.2	606.5	476.5	355.1	302.3	242.9	203.2	175.4	198.5	792.0	9999.9	9999.9	9999.9	 3034	149.0	93.35	62.95	47.39	34.63	22.47
415.0	504.7	472.3	490.6	525.8	649.6	647.7	662.4	678.9	728.8	789.8	770.3	751.5	758.5	751.8	771.4	786.6	798.2	746.2	707.2	659.2	626.6	650.1	648.6	668.7	687.8	659.7	675.6	660.9	616.0	573.8	550.6	523.9	529.9	589.7	441.7	341.6	260.0	225.2	176.1	158.4	180.7	787.9	9999.9	9999.9	9999.9	 3081	141.7	91.62	63.26	46.17	31.55
420.0	506.3	471.1	564.3	509.0	603.3	617.3	693.3	725.8	688.6	771.3	788.0	734.3	742.9	728.0	763.7	820.4	716.3	708.9	697.7	696.7	644.4	647.7	645.9	674.5	667.9	654.9	662.5	657.5	636.1	586.2	551.1	525.0	499.9	539.9	533.5	406.5	293.0	245.9	198.8	161.3	139.2	162.6	770.8	9999.9	9999.9	9999.9	 2646	129.4	80.41	61.31	44.27
425.0	353.3	459.3	476.8	532.9	546.9	666.6	737.8	636.6	756.8	728.1	760.0	747.8	730.4	756.8	801.7	815.5	774.5	696.4	698.6	655.9	645.0	622.0	655.5	665.2	669.8	667.7	648.9	644.4	611.8	597.7	552.8	544.0	506.2	493.4	544.6	485.1	325.6	252.1	211.4	178.3	138.1	120.2	154.1	760.9	9999.9	9999.9	9999.9	 2322	119.1	79.58	54.14
430.0	437.8	417.3	547.8	608.3	530.8	650.7	716.8	728.1	692.8	734.9	759.4	700.8	776.7	761.4	808.0	862.2	748.8	735.2	686.7	664.1	612.5	644.9	645.8	630.0	644.6	640.7	635.0	623.8	616.2	594.4	563.8	563.6	513.3	488.3	479.1	519.2	412.2	280.4	225.9	192.0	152.4	132.6	120.4	145.0	754.0	9999.9	9999.9	9999.9	 2104	112.8	73.50
435.0	441.8	441.0	446.2	491.2	593.6	644.2	630.7	663.5	732.9	720.0	750.8	741.0	727.7	732.7	849.2	787.2	788.8	726.7	709.2	644.8	619.8	617.3	585.3	612.7	619.7	609.0	633.3	624.9	591.7	588.1	556.1	549.2	520.9	505.5	458.7	461.0	458.0	349.2	248.1	210.0	171.2	145.4	112.5	101.1	137.4	745.5	9999.9	9999.9	9999.9	 2040	105.5
440.0	435.5	446.1	481.5	483.5	601.5	651.0	582.6	612.3	682.6	732.0	720.0	715.0	712.2	799.4	828.6	776.7	766.7	714.5	661.7	628.7	619.9	584.8	602.7	580.5	588.5	607.1	624.0	611.9	578.8	577.1	568.8	555.5	518.6	496.2	465.8	458.2	427.5	414.4	292.2	216.6	187.7	159.3	125.1	104.1	98.15	134.5	733.6	9999.9	9999.9	9999.9	 1792
445.0	482.4	416.0	451.2	512.9	526.4	620.4	601.6	629.0	669.3	686.5	727.7	702.1	740.2	747.6	717.5	801.4	753.3	689.9	673.3	605.9	612.4	558.5	574.1	574.3	553.5	578.0	562.6	593.0	578.1	575.9	541.4	535.5	541.1	499.2	471.8	435.0	386.6	401.2	351.2	246.3	193.7	165.7	128.9	111.9	94.08	87.17	130.1	734.2	9999.9	9999.9	9999.9
450.0	260.3	314.1	588.5	484.6	449.2	565.3	575.8	620.6	576.4	661.7	667.9	714.6	724.9	695.4	757.1	749.1	727.8	668.4	637.7	596.5	557.5	540.4	560.6	543.0	555.5	560.9	550.0	567.6	543.1	537.0	517.1	512.4	496.1	490.3	466.9	433.2	371.5	351.6	350.2	292.4	211.5	172.2	144.1	119.9	98.07	82.24	83.57	125.1	726.5	9999.9	9999.9
455.0	418.2	480.6	417.9	426.9	434.9	514.6	617.3	578.4	602.6	644.9	644.4	667.1	666.0	700.5	727.7	758.5	723.1	672.3	618.4	542.4	530.5	539.6	510.7	519.9	535.3	527.7	524.8	527.3	520.4	507.9	497.7	490.3	481.5	477.7	453.6	410.1	376.1	312.4	323.5	324.4	242.6	184.3	161.0	129.8	109.5	93.64	84.56	77.21	119.4	726.3	9999.9
460.0	428.7	293.9	370.0	450.0	416.9	512.0	522.7	557.3	613.6	562.2	674.3	601.6	645.3	694.3	669.5	733.9	653.0	616.8	599.5	542.2	533.8	482.6	486.7	493.2	491.4	501.9	489.2	485.2	486.6	471.5	473.6	468.4	446.4	451.2	430.8	407.5	361.8	325.6	281.8	289.3	269.7	205.1	154.4	127.8	122.1	103.2	85.97	76.82	75.35	115.2	717.0
465.0	397.0	445.1	334.2	387.3	427.4	442.7	520.8	495.0	604.3	567.7	594.2	569.8	628.4	639.0	666.1	675.9	641.1	598.3	552.2	487.5	485.0	487.2	467.0	456.9	444.3	460.5	455.4	457.9	459.5	452.6	461.5	444.4	430.2	436.9	433.1	406.3	358.2	303.8	275.0	252.7	256.9	235.6	170.7	145.2	113.0	105.2	89.05	79.79	76.38	69.09	109.0
470.0	345.7	396.2	447.0	402.8	457.8	468.7	504.3	418.8	546.2	509.3	546.3	580.1	594.4	603.8	649.4	642.8	606.6	572.8	511.4	471.7	463.4	444.5	423.2	440.6	431.0	422.2	427.9	440.1	416.2	425.9	417.7	407.1	419.0	387.6	378.7	386.6	339.9	302.1	276.8	245.0	228.0	233.0	200.6	155.6	122.3	107.6	95.69	90.55	77.34	70.02	63.61
475.0	254.7	331.5	343.3	359.8	410.7	439.1	471.6	454.1	458.3	540.2	499.9	518.2	554.7	576.0	575.3	601.5	570.6	509.4	500.1	462.5	399.9	399.1	399.5	394.0	397.0	394.3	388.5	375.0	373.5	381.2	392.0	375.7	386.2	364.9	378.5	348.7	318.2	291.1	264.3	226.1	211.2	206.1	206.8	167.8	126.5	109.3	101.3	82.74	72.84	67.59	60.08
480.0	198.9	282.4	322.1	310.3	349.7	386.3	405.0	421.9	460.3	455.1	479.8	518.2	536.8	581.8	537.3	559.7	535.2	501.5	484.8	430.6	410.5	383.8	396.4	361.5	388.3	365.3	357.8	358.5	355.9	374.8	336.6	347.1	364.7	353.7	337.8	326.8	301.9	267.5	246.8	229.8	202.2	181.4	188.8	186.0	143.0	109.1	100.1	86.26	75.39	71.78	63.81
485.0	263.0	316.0	295.3	339.7	294.8	336.1	343.8	364.8	437.4	470.0	484.1	517.2	526.9	510.7	531.8	524.4	517.3	456.5	437.9	404.8	382.0	375.9	370.3	330.8	334.8	337.0	336.6	345.6	330.1	347.6	334.0	335.8	329.9	334.6	323.7	304.9	282.0	258.9	237.9	211.8	199.1	183.2	160.0	179.4	165.5	123.2	107.0	91.02	84.09	73.76	63.76
490.0	220.9	213.2	246.6	283.7	377.0	317.1	332.6	450.3	361.1	401.9	419.1	435.9	482.1	505.7	522.9	516.0	496.8	430.3	396.4	366.2	343.0	352.5	351.8	308.6	316.3	318.6	320.2	322.1	325.2	298.8	316.7	308.8	321.0	314.7	300.8	299.8	281.4	254.9	223.0	208.9	187.0	172.8	149.9	142.5	168.0	146.2	104.0	93.91	80.94	73.28	67.27
495.0	172.4	216.7	265.8	275.9	322.1	352.6	331.4	344.3	409.2	344.8	420.4	423.6	430.3	465.6	445.6	472.2	463.1	425.9	385.8	361.8	355.4	336.5	301.7	306.4	302.5	299.1	293.6	293.4	292.9	296.7	286.7	284.6	285.8	299.5	280.7	275.4	246.9	230.2	211.4	198.7	182.8	163.5	153.3	141.8	139.7	144.8	121.0	94.76	88.07	83.16	69.11
500.0	279.3	295.9	200.6	233.2	241.0	314.8	311.4	301.5	370.1	385.3	359.2	383.5	395.1	417.4	415.3	458.0	430.9	416.8	352.6	346.0	309.9	300.8	310.5	292.0	269.8	263.5	272.6	270.1	274.3	273.9	274.1	274.2	267.7	268.9	263.8	262.3	239.4	217.7	200.2	184.3	174.0	165.7	142.9	133.2	112.8	130.7	134.5	104.1	82.12	79.61	65.95
505.0	238.4	179.1	267.4	191.6	197.5	224.1	225.6	274.1	299.4	353.8	344.3	351.9	387.2	400.1	435.9	425.6	400.2	368.4	330.3	304.9	296.8	287.8	269.2	267.0	249.0	252.6	238.5	239.9	257.8	244.2	238.4	249.1	244.2	237.1	242.1	239.1	219.6	210.1	189.4	174.9	162.4	149.0	133.9	129.9	112.8	112.6	119.6	116.2	94.21	77.54	64.79
510.0	275.2	216.0	161.9	205.9	184.9	271.9	232.8	308.2	277.2	302.5	310.1	340.5	387.3	359.1	404.1	402.8	364.3	343.3	308.8	283.0	263.0	254.3	261.5	232.6	247.8	236.8	232.8	219.9	226.7	233.9	219.7	216.6	217.1	238.1	220.9	215.6	206.5	176.3	178.8	161.2	151.2	142.1	129.8	114.6	110.9	109.9	100.6	107.2	95.40	80.28	67.81
515.0	181.4	191.3	264.0	129.2	298.4	262.7	227.5	205.1	222.6	287.6	288.5	303.3	293.4	326.1	367.1	328.7	328.8	313.4	284.5	281.5	261.3	237.0	242.2	210.7	209.6	218.3	202.0	205.6	197.7	194.8	207.5	206.0	195.2	209.0	206.8	200.1	180.2	165.2	159.8	144.5	143.2	132.5	122.3	109.9	97.17	94.54	89.99	94.88	100.8	78.95	68.48
520.0	155.1	146.5	180.1	194.8	167.3	224.0	198.2	209.8	255.8	236.3	227.7	286.1	308.0	320.0	306.3	333.4	304.4	285.8	299.3	243.1	233.5	231.6	223.0	209.4	199.9	200.4	179.3	197.3	174.4	178.6	183.6	181.8	180.8	187.5	186.4	184.5	172.9	157.1	149.4	140.1	138.5	119.7	104.5	105.4	92.93	92.01	89.73	83.63	93.38	88.58	66.43
525.0	157.9	129.9	140.8	180.2	145.5	190.9	194.0	249.7	196.8	218.4	250.2	261.4	245.4	281.9	311.1	302.1	283.8	255.9	244.2	232.5	219.7	204.3	201.6	191.9	173.9	176.0	173.0	172.7	158.6	155.5	156.6	174.6	162.6	174.9	169.0	163.5	144.4	140.2	124.5	120.9	112.9	106.0	101.1	93.97	85.08	80.82	77.95	76.25	76.31	84.16	69.57
530.0	131.0	111.1	114.6	159.8	146.3	185.4	187.3	166.1	211.5	188.6	211.1	228.8	257.4	292.7	262.8	286.4	249.6	240.5	217.6	208.9	197.4	179.9	178.8	166.5	166.3	158.0	156.0	164.2	151.9	149.9	145.8	147.1	143.3	147.8	148.3	153.9	136.5	125.4	114.1	112.8	98.57	92.83	91.62	86.58	83.02	76.64	73.25	69.95	66.78	70.28	74.87
535.0	156.9	146.8	103.0	136.9	186.1	152.6	190.1	152.9	170.6	177.7	173.4	192.2	193.1	239.8	275.0	246.7	228.0	220.8	210.9	178.9	182.7	170.4	165.0	159.8	152.0	144.9	146.5	145.2	137.9	131.3	141.0	139.5	137.3	131.7	129.0	134.9	127.9	117.8	104.6	100.5	94.18	90.75	85.80	83.02	79.84	73.14	66.47	67.16	60.67	55.75	64.83
540.0	71.58	123.2	145.1	142.3	148.1	116.1	183.1	140.2	173.0	164.5	164.1	190.0	203.4	245.3	313.9	283.0	221.2	208.1	195.7	193.8	165.9	150.2	159.7	136.0	141.5	124.3	132.8	129.7	118.7	131.4	120.2	122.2	121.9	125.6	117.4	118.6	104.0	102.3	96.12	94.42	83.42	83.34	81.06	75.60	71.45	62.68	58.57	61.60	58.10	50.30	54.58
545.0	88.56	78.53	181.0	111.6	128.6	140.0	147.1	118.8	135.5	135.7	157.7	167.3	193.9	181.1	340.9	508.4	246.3	172.6	180.5	151.1	146.2	140.0	141.3	134.3	121.2	120.9	117.3	118.3	113.2	117.6	107.1	111.4	106.2	112.0	114.2	112.7	100.1	92.31	88.86	82.66	75.62	72.49	70.89	67.60	64.50	61.76	57.40	55.79	56.08	46.76	46.22
550.0	133.9	138.1	141.5	85.45	74.52	128.9	122.2	105.1	146.3	132.9	147.0	156.1	176.3	184.3	236.3	 1021	415.3	161.9	161.0	144.0	143.3	134.8	131.2	119.4	117.8	114.8	114.0	107.3	104.9	103.2	104.6	100.9	105.6	107.2	105.7	93.69	90.75	88.90	82.16	74.49	71.86	65.53	63.04	62.97	57.79	57.11	57.00	52.03	49.69	47.70	40.79
