Sample:	'SLABO1-5-5-320
File name:	2N11.FD3
Run Date:	15:07:00, 08/17/2022
Operator:	Administrator
Comment:	'

Instrument
Model:	F-7000 FL Spectrophotometer
Serial Number:	2354-007
ROM Version:	5J14000 06

Instrument Parameters
Measurement type:	3-D Scan
Data mode:	Fluorescence
EX  Start WL:	200.0 nm
EX  End WL:	450.0 nm
EX Sampling Interval:	5.0 nm
EM  Start WL:	280.0 nm
EM  End WL:	550.0 nm
EM Sampling Interval:	5.0 nm
Scan speed:	12000 nm/min
EX Slit:	5.0 nm
EM Slit:	5.0 nm
PMT Voltage:	700 V
Response:	Auto 
Corrected spectra:	Off
Shutter control:	On
Contour interval:	25.000

Peak integration
Integration method:	Rectangular
Sensitivity:	1
Threshold:	1.000

Peaks
No.	ApexEX/EM(nm)	Height(Data)
1	205.0/300.0	649.8
2	205.0/330.0	483.9
3	210.0/315.0	577.5
4	210.0/470.0	677.0
5	215.0/540.0	312.7
6	220.0/300.0	615.2
7	225.0/315.0	617.9
8	225.0/510.0	678.4
9	230.0/330.0	742.2
10	235.0/435.0	 1818
11	240.0/395.0	 1601
12	255.0/300.0	257.2
13	265.0/290.0	288.5
14	270.0/440.0	 2360
15	275.0/305.0	652.8
16	275.0/435.0	 2336
17	280.0/310.0	843.2
18	285.0/315.0	799.2
19	290.0/320.0	735.5
20	295.0/330.0	648.1
21	300.0/335.0	608.0
22	305.0/340.0	616.9
23	310.0/345.0	641.9
24	310.0/420.0	 1696
25	315.0/355.0	694.6
26	325.0/420.0	 1766
27	355.0/295.0	7.713
28	370.0/315.0	10.43
29	400.0/315.0	5.944
30	405.0/340.0	7.597
31	410.0/325.0	5.950
32	415.0/335.0	6.075
33	420.0/315.0	5.483
34	425.0/330.0	5.259
35	435.0/310.0	5.004
36	440.0/345.0	5.742
37	440.0/355.0	5.794
38	445.0/315.0	4.289

Data Points
	200.0	205.0	210.0	215.0	220.0	225.0	230.0	235.0	240.0	245.0	250.0	255.0	260.0	265.0	270.0	275.0	280.0	285.0	290.0	295.0	300.0	305.0	310.0	315.0	320.0	325.0	330.0	335.0	340.0	345.0	350.0	355.0	360.0	365.0	370.0	375.0	380.0	385.0	390.0	395.0	400.0	405.0	410.0	415.0	420.0	425.0	430.0	435.0	440.0	445.0	450.0
280.0	52.93	35.89	22.83	43.40	76.24	36.02	13.50	19.11	21.85	39.31	61.82	65.87	65.67	22.13	15.69	 1630	 8883	 3041	71.85	15.29	11.93	10.39	11.43	9.016	5.829	6.270	6.027	5.328	5.893	4.330	4.995	5.155	5.467	3.813	4.545	4.051	3.603	3.759	3.540	1.596	1.880	2.159	1.509	1.713	1.115	1.426	1.466	1.153	1.227	1.172	1.019
285.0	234.8	98.50	140.8	158.9	151.4	114.6	85.89	56.96	48.63	118.1	144.5	145.8	181.7	107.6	49.70	143.9	 3889	9999.9	9999.9	479.0	24.31	19.10	19.17	14.26	11.98	10.36	9.294	6.225	5.824	4.394	5.392	4.978	4.301	4.627	4.092	3.313	3.204	3.136	3.249	3.472	2.284	2.397	1.847	1.875	2.035	2.257	1.949	1.988	1.750	1.705	1.756
290.0	439.6	201.8	248.3	292.5	289.0	353.1	254.8	122.0	104.1	143.0	220.3	199.4	198.4	288.5	134.9	112.2	320.5	 8237	9999.9	9999.9	649.0	27.61	23.45	20.42	14.91	13.17	10.50	8.165	8.015	4.983	5.694	6.568	5.931	5.663	5.088	3.182	4.048	3.439	4.871	3.960	2.719	3.313	2.442	1.941	1.763	2.202	2.659	3.237	2.909	1.982	2.385
295.0	565.2	443.3	394.5	408.6	517.5	434.2	330.1	177.5	145.4	195.6	240.9	214.4	201.9	281.6	448.3	236.0	169.0	634.6	9999.9	9999.9	9999.9	796.1	37.53	25.89	21.68	21.68	9.821	8.515	8.843	7.301	6.154	7.713	6.500	5.868	5.791	5.678	4.828	3.580	4.619	4.494	3.710	3.234	3.265	2.672	3.186	2.119	2.614	2.666	2.864	2.486	2.174
300.0	577.0	649.8	471.8	455.6	615.2	593.4	458.6	290.8	189.7	237.3	252.6	257.2	228.3	256.2	484.5	519.0	264.4	221.8	750.0	9999.9	9999.9	9999.9	808.0	34.83	30.69	28.54	19.64	11.47	11.05	10.60	6.948	6.120	6.297	5.790	5.899	6.687	3.918	3.821	5.512	3.315	3.824	2.812	2.972	3.319	3.184	2.896	2.959	3.093	3.493	2.639	3.482
305.0	653.0	518.1	544.0	408.2	531.4	585.4	502.1	278.2	259.8	236.9	269.9	239.0	259.3	279.7	337.9	652.8	546.0	262.1	190.0	725.6	9999.9	9999.9	9999.9	983.0	51.31	36.36	26.93	21.80	14.87	11.09	10.11	10.38	8.470	8.735	4.997	5.504	5.241	5.306	5.689	4.373	3.956	3.998	2.953	3.461	3.272	3.324	3.639	3.577	3.904	2.810	3.015
310.0	675.1	658.5	518.2	496.1	535.1	539.3	469.8	350.4	325.1	277.1	268.3	260.1	296.5	289.8	388.6	454.5	843.2	474.3	194.6	166.9	725.6	9999.9	9999.9	9999.9	971.0	46.45	37.89	28.62	23.74	17.38	12.48	10.13	10.01	8.408	8.752	7.302	6.851	5.899	6.599	5.279	4.169	5.145	4.567	3.934	4.648	3.632	4.093	5.004	3.636	3.216	3.401
315.0	649.0	532.9	577.5	510.4	559.7	617.9	536.5	322.7	397.6	341.6	305.5	317.4	286.0	335.5	374.8	419.1	592.2	799.2	356.8	149.9	158.4	732.8	9999.9	9999.9	9999.9	846.1	60.78	40.65	32.06	22.07	15.49	12.36	12.32	8.052	10.43	8.718	8.224	6.093	5.630	4.764	5.944	4.965	3.016	3.414	5.483	3.423	4.055	2.804	2.906	4.289	3.849
320.0	480.9	491.8	564.5	424.5	607.7	611.9	540.3	390.9	438.6	333.6	333.3	317.4	331.6	389.1	422.5	453.3	470.9	591.6	735.5	276.6	143.6	143.5	743.1	9999.9	9999.9	9999.9	832.6	69.21	44.16	32.62	23.69	16.99	14.15	9.912	9.360	8.669	8.533	7.305	6.267	4.675	4.759	5.532	4.752	5.644	4.886	4.332	4.269	4.791	4.263	3.151	3.667
325.0	407.8	435.0	455.1	557.8	524.8	616.5	616.3	471.7	482.9	423.9	378.9	389.2	403.9	393.6	446.9	504.2	524.1	477.4	647.6	602.3	212.0	142.1	158.5	737.3	9999.9	9999.9	9999.9	892.5	66.28	50.06	33.66	25.18	18.14	15.20	12.78	10.12	8.984	6.612	6.598	5.909	5.048	4.655	5.950	5.821	4.713	4.401	4.444	3.683	3.966	4.493	3.457
330.0	379.3	483.9	442.0	424.8	522.6	671.3	742.2	592.0	599.3	442.8	390.3	426.7	425.4	433.7	477.0	508.4	539.6	479.3	464.9	648.1	512.8	198.3	150.7	165.7	743.4	9999.9	9999.9	9999.9	898.2	70.21	47.19	36.81	28.10	18.09	14.50	12.26	9.173	6.944	6.960	6.515	4.917	5.695	3.771	4.151	4.281	5.259	3.346	3.487	4.462	4.489	3.670
335.0	353.7	428.6	487.3	504.3	560.4	652.6	657.9	646.2	660.5	470.4	452.5	448.2	468.4	479.3	499.7	554.8	569.9	584.8	472.4	420.0	608.0	413.1	194.2	157.4	175.9	758.1	9999.9	9999.9	9999.9	917.5	73.73	53.82	38.65	28.22	20.86	11.71	9.231	10.18	7.237	6.517	5.080	5.559	4.742	6.075	4.248	3.709	3.667	3.902	4.417	4.589	3.569
340.0	357.8	434.8	462.0	477.8	591.3	601.4	717.2	646.5	673.7	460.4	465.2	476.8	470.8	504.8	572.9	584.6	611.8	578.3	519.8	431.1	438.2	616.9	358.2	207.7	189.0	196.8	776.1	9999.9	9999.9	9999.9	 1022	75.88	53.72	35.58	28.78	19.92	11.66	11.02	9.051	6.607	6.548	7.597	5.012	5.066	5.929	4.736	4.826	4.122	4.361	3.166	3.512
345.0	280.2	418.8	426.5	497.0	558.5	733.5	743.1	777.8	708.6	541.1	500.8	511.7	523.7	567.1	588.2	615.2	660.7	665.7	612.1	489.9	416.5	479.1	641.9	352.5	242.4	222.2	220.7	777.4	9999.9	9999.9	9999.9	 1109	74.27	51.72	40.40	27.02	16.73	14.12	9.143	8.776	5.259	5.564	5.277	6.462	4.741	4.796	3.415	4.181	5.742	4.201	4.888
350.0	337.7	414.5	478.9	460.0	721.2	704.4	723.5	834.4	820.3	632.3	619.4	612.7	585.0	622.9	644.8	732.9	740.2	722.2	694.1	582.5	490.3	448.8	591.3	647.3	384.4	301.0	268.1	252.5	813.1	9999.9	9999.9	9999.9	 1108	78.22	56.81	37.33	26.23	17.33	13.14	11.20	6.790	6.944	6.669	5.583	4.419	4.389	4.420	3.634	4.028	3.463	4.544
355.0	376.4	342.3	361.1	445.4	648.8	704.7	773.1	836.0	827.2	783.0	617.6	701.2	710.7	748.1	774.0	765.8	801.3	812.8	764.4	667.9	600.2	568.7	582.5	694.6	682.0	441.1	376.5	323.2	302.4	823.5	9999.9	9999.9	9999.9	 1191	74.42	47.39	37.38	26.39	19.59	10.97	9.132	7.891	8.581	6.299	5.565	3.653	4.758	5.072	5.794	4.328	4.456
360.0	358.9	345.9	400.5	499.9	610.0	688.0	871.4	941.2	949.5	889.7	758.9	767.0	773.0	807.8	862.1	921.3	913.5	866.2	823.1	752.4	680.5	683.8	658.9	665.4	835.8	714.6	523.1	427.3	366.6	318.1	832.9	9999.9	9999.9	9999.9	 1113	78.53	52.46	29.64	24.06	15.34	9.927	10.33	6.506	6.556	5.139	4.854	5.140	4.043	5.293	4.851	3.983
365.0	367.1	307.8	465.8	480.7	595.7	836.1	806.9	988.4	 1038	920.0	848.3	918.0	904.1	937.7	 1002	 1036	 1024	950.2	917.1	841.3	836.2	797.4	778.8	774.0	803.3	962.0	748.9	592.9	479.6	382.6	331.7	844.1	9999.9	9999.9	9999.9	 1185	68.74	46.66	32.48	22.27	15.13	11.56	9.005	8.474	7.803	5.942	5.252	5.439	3.774	4.840	5.558
370.0	329.6	480.6	613.2	608.7	677.4	912.7	 1021	 1063	 1053	929.8	994.9	995.4	999.3	 1117	 1154	 1162	 1166	 1097	 1019	981.8	930.6	914.7	901.1	925.1	893.2	928.5	 1032	798.2	620.0	511.5	397.4	341.6	836.6	9999.9	9999.9	9999.9	 1165	67.88	43.33	30.86	24.39	14.54	10.08	9.877	8.024	6.064	5.588	4.991	4.977	6.020	4.704
375.0	373.0	474.2	521.0	599.2	711.1	842.5	 1081	 1194	 1116	 1136	 1220	 1208	 1180	 1219	 1269	 1301	 1304	 1196	 1143	 1067	 1057	 1045	 1051	 1067	 1038	 1019	 1056	 1102	818.9	636.4	528.2	389.9	322.8	838.5	9999.9	9999.9	9999.9	 1230	63.88	42.30	28.60	20.61	12.61	11.06	8.281	9.093	6.343	6.121	6.012	4.663	4.392
380.0	261.9	515.7	515.9	661.1	805.4	960.8	 1169	 1338	 1251	 1233	 1254	 1274	 1278	 1378	 1415	 1451	 1408	 1284	 1257	 1224	 1181	 1159	 1156	 1163	 1152	 1136	 1120	 1172	 1082	802.9	682.3	507.8	410.6	334.2	847.4	9999.9	9999.9	9999.9	 1092	61.58	38.67	26.87	19.52	13.90	11.13	7.628	7.095	7.076	6.144	5.609	6.008
385.0	405.7	540.6	589.6	673.0	717.3	 1102	 1187	 1388	 1289	 1417	 1442	 1448	 1484	 1485	 1543	 1554	 1512	 1450	 1402	 1269	 1268	 1257	 1306	 1277	 1277	 1279	 1209	 1195	 1246	 1074	819.7	653.1	509.1	407.0	336.0	828.9	9999.9	9999.9	9999.9	 1125	58.78	36.01	26.10	19.13	13.92	8.156	8.862	7.695	6.875	6.467	6.080
390.0	439.5	535.8	698.0	777.7	916.9	 1234	 1281	 1443	 1381	 1446	 1461	 1583	 1561	 1634	 1689	 1656	 1621	 1559	 1427	 1403	 1391	 1404	 1427	 1420	 1359	 1375	 1347	 1299	 1241	 1252	 1014	776.1	650.5	507.5	396.3	328.5	820.1	9999.9	9999.9	9999.9	 1061	56.76	35.02	22.88	16.97	13.68	10.45	9.012	5.972	5.460	5.770
395.0	478.6	599.4	708.5	895.6	918.3	 1090	 1331	 1456	 1601	 1560	 1618	 1711	 1694	 1750	 1802	 1814	 1805	 1681	 1554	 1498	 1452	 1490	 1484	 1527	 1498	 1523	 1469	 1405	 1309	 1302	 1242	986.2	791.9	643.8	508.4	382.1	304.7	820.4	 9655	9999.9	9999.9	 1050	50.10	31.94	24.70	18.72	13.28	10.01	8.492	7.167	7.119
400.0	502.5	580.3	572.1	840.0	 1095	 1367	 1559	 1550	 1526	 1609	 1746	 1764	 1846	 1894	 1909	 1907	 1891	 1778	 1631	 1569	 1594	 1541	 1565	 1559	 1590	 1597	 1557	 1512	 1412	 1324	 1337	 1220	966.5	777.2	650.9	491.7	357.0	301.1	785.2	 9131	9999.9	9999.9	925.3	48.60	29.38	21.74	13.51	12.39	9.369	8.522	7.802
405.0	520.2	642.9	699.3	982.7	 1120	 1409	 1589	 1704	 1591	 1800	 1770	 1901	 1895	 1970	 2006	 1991	 1957	 1886	 1709	 1652	 1638	 1616	 1612	 1656	 1637	 1650	 1647	 1626	 1543	 1443	 1354	 1308	 1190	920.3	759.1	590.4	460.0	330.8	277.8	739.6	 8009	9999.9	9999.9	824.1	46.68	27.52	19.14	13.74	11.03	11.08	10.13
410.0	406.2	621.2	822.1	935.4	 1147	 1523	 1686	 1676	 1792	 1874	 1762	 1950	 2017	 2099	 2149	 2099	 2011	 1936	 1857	 1707	 1660	 1619	 1677	 1684	 1731	 1728	 1651	 1674	 1574	 1500	 1391	 1325	 1337	 1125	898.7	704.1	563.1	413.4	303.6	253.1	667.8	 7973	9999.9	9999.9	786.1	41.39	29.20	18.26	15.24	11.93	10.82
415.0	464.3	576.9	886.4	910.0	 1171	 1428	 1484	 1803	 1843	 1902	 1986	 1998	 2137	 2179	 2162	 2202	 2069	 1939	 1749	 1715	 1646	 1664	 1677	 1707	 1727	 1728	 1699	 1673	 1647	 1578	 1493	 1369	 1311	 1289	 1053	825.2	658.1	512.5	390.8	289.4	241.0	647.8	 7516	9999.9	9999.9	768.5	43.63	27.54	18.34	16.32	12.76
420.0	496.5	702.5	688.2	809.0	 1228	 1475	 1549	 1760	 1701	 1808	 1885	 1987	 2157	 2198	 2244	 2250	 2114	 1998	 1833	 1750	 1651	 1695	 1696	 1676	 1732	 1766	 1761	 1690	 1651	 1576	 1503	 1430	 1317	 1302	 1212	950.9	734.4	588.7	466.8	344.6	264.1	218.4	611.1	 7142	9999.9	9999.9	676.6	40.49	24.36	20.19	15.38
425.0	492.4	634.0	721.3	 1041	 1137	 1334	 1697	 1809	 1808	 1994	 2055	 2103	 2095	 2160	 2210	 2280	 2127	 2000	 1895	 1750	 1697	 1681	 1696	 1692	 1699	 1724	 1730	 1707	 1676	 1580	 1530	 1468	 1367	 1273	 1259	 1089	855.3	668.7	532.5	409.1	315.4	240.5	206.4	580.1	 6686	9999.9	9999.9	580.6	36.50	25.73	18.87
430.0	409.8	622.2	880.3	 1016	 1165	 1336	 1602	 1738	 1683	 1962	 2058	 2073	 2146	 2236	 2239	 2281	 2174	 2005	 1911	 1759	 1692	 1652	 1672	 1684	 1665	 1723	 1670	 1698	 1665	 1609	 1555	 1491	 1388	 1312	 1239	 1170	957.1	744.6	618.4	484.8	369.1	295.0	224.7	195.3	541.9	 6394	9999.9	9999.9	525.1	36.51	26.72
435.0	384.9	651.4	855.2	985.3	 1063	 1514	 1631	 1818	 1742	 1846	 1995	 2001	 2162	 2269	 2297	 2336	 2182	 2035	 1917	 1794	 1675	 1634	 1645	 1632	 1662	 1675	 1681	 1662	 1626	 1601	 1553	 1484	 1425	 1347	 1249	 1138	 1029	854.7	674.8	542.8	424.5	348.8	264.4	205.0	188.0	524.6	 6078	9999.9	9999.9	532.0	35.67
440.0	437.3	615.7	859.8	927.6	 1167	 1362	 1542	 1693	 1710	 1931	 2025	 2013	 2169	 2236	 2360	 2274	 2238	 1999	 1884	 1762	 1665	 1614	 1617	 1633	 1637	 1647	 1644	 1626	 1625	 1573	 1542	 1460	 1413	 1368	 1275	 1154	 1049	928.2	732.0	590.7	478.4	394.9	311.5	248.4	196.7	177.0	502.3	 5991	9999.9	9999.9	438.8
445.0	500.6	642.4	797.3	895.3	 1042	 1422	 1527	 1622	 1672	 1822	 1943	 2041	 2054	 2188	 2220	 2218	 2170	 1992	 1848	 1729	 1651	 1572	 1562	 1580	 1553	 1581	 1579	 1561	 1546	 1516	 1479	 1452	 1417	 1348	 1282	 1175	 1038	945.5	840.0	634.8	521.8	449.4	360.5	293.3	226.5	186.4	167.0	485.7	 6084	9999.9	9999.9
450.0	427.3	605.7	751.2	821.6	 1170	 1174	 1503	 1595	 1654	 1722	 1886	 1897	 2078	 2171	 2236	 2231	 2122	 2002	 1810	 1644	 1556	 1501	 1525	 1546	 1506	 1539	 1500	 1506	 1499	 1482	 1440	 1426	 1391	 1343	 1278	 1184	 1001	922.5	860.2	710.5	574.9	471.5	392.1	327.4	270.5	221.2	173.2	171.1	492.3	 5786	9999.9
455.0	392.7	645.8	678.9	942.1	 1082	 1233	 1493	 1446	 1463	 1644	 1730	 1856	 2024	 2096	 2095	 2190	 2114	 1899	 1764	 1629	 1537	 1462	 1468	 1427	 1450	 1418	 1432	 1463	 1435	 1384	 1382	 1362	 1323	 1298	 1243	 1150	 1004	892.1	823.6	759.4	620.6	524.3	444.1	371.7	302.8	259.3	207.3	167.2	155.2	470.5	 5676
460.0	381.3	434.7	648.6	758.6	910.0	 1124	 1326	 1327	 1502	 1625	 1650	 1742	 1916	 1997	 2079	 2085	 1992	 1820	 1699	 1557	 1425	 1418	 1388	 1353	 1372	 1326	 1346	 1315	 1347	 1324	 1327	 1278	 1278	 1268	 1228	 1119	999.8	902.5	805.7	744.6	669.1	549.4	455.4	386.8	331.8	283.4	231.2	187.2	168.1	144.4	451.7
465.0	270.0	406.6	645.9	636.4	932.4	 1058	 1235	 1359	 1522	 1516	 1617	 1652	 1777	 1997	 1962	 2066	 1914	 1753	 1655	 1480	 1377	 1329	 1317	 1293	 1293	 1262	 1258	 1270	 1264	 1258	 1254	 1234	 1210	 1223	 1174	 1082	977.4	890.2	785.6	686.5	656.4	586.0	481.0	417.6	349.0	305.4	255.3	216.5	183.7	151.6	142.5
470.0	440.8	421.9	677.0	544.8	854.0	 1036	 1073	 1187	 1371	 1305	 1523	 1626	 1760	 1764	 1944	 1913	 1821	 1719	 1537	 1392	 1323	 1250	 1256	 1189	 1194	 1170	 1183	 1155	 1170	 1170	 1143	 1141	 1149	 1117	 1091	 1032	942.4	860.4	764.6	685.0	629.9	579.5	516.8	429.3	371.7	328.9	276.2	240.6	206.1	172.8	139.7
475.0	284.1	421.1	629.7	678.1	699.8	924.1	 1137	 1210	 1245	 1346	 1469	 1429	 1608	 1707	 1736	 1808	 1701	 1618	 1467	 1339	 1238	 1191	 1125	 1130	 1081	 1068	 1067	 1100	 1089	 1071	 1065	 1051	 1044	 1054	 1033	960.5	884.4	817.3	725.8	657.2	590.3	563.0	525.6	460.8	381.0	338.1	294.9	261.2	218.5	192.5	155.7
480.0	214.4	453.0	457.3	645.9	722.7	881.6	 1111	 1127	 1170	 1197	 1311	 1412	 1468	 1608	 1666	 1711	 1649	 1583	 1391	 1292	 1152	 1100	 1073	 1050	 1047	992.8	 1018	 1020	988.4	999.8	 1001	988.7	989.7	 1001	978.6	915.9	843.0	766.2	707.3	644.1	593.9	542.3	514.4	473.8	401.8	349.7	303.2	268.2	239.5	207.3	175.3
485.0	321.0	360.8	456.9	523.6	647.4	797.7	942.9	 1130	 1121	 1216	 1233	 1339	 1438	 1557	 1566	 1629	 1539	 1480	 1318	 1206	 1127	 1084	 1050	 1014	989.5	954.9	966.7	941.0	950.7	927.1	944.0	945.7	941.2	936.7	904.6	867.3	814.6	750.8	704.5	631.4	581.1	531.7	466.2	465.4	421.4	370.8	317.7	279.8	243.7	220.5	192.5
490.0	213.5	351.3	403.5	521.2	617.3	762.4	933.5	995.1	 1058	 1177	 1125	 1227	 1388	 1439	 1509	 1599	 1536	 1350	 1276	 1158	 1114	 1032	990.4	968.4	917.8	944.0	881.5	891.3	877.8	891.1	877.6	880.6	890.5	880.6	864.9	837.5	773.3	725.8	664.6	608.3	549.6	523.2	468.8	435.4	440.4	386.4	325.3	292.5	262.3	240.7	204.9
495.0	237.2	442.9	421.9	459.5	570.1	771.9	863.0	941.4	 1000	 1053	 1070	 1220	 1354	 1424	 1419	 1549	 1423	 1319	 1208	 1082	 1021	975.1	907.4	872.3	881.0	882.9	830.3	831.4	819.7	821.1	816.2	811.3	819.6	812.4	820.5	767.6	758.4	680.2	622.2	570.6	538.0	506.3	456.6	420.9	403.2	386.1	342.1	296.8	270.2	242.7	214.4
500.0	146.8	300.7	415.2	527.8	547.6	635.7	741.1	826.4	992.0	950.5	 1101	 1119	 1130	 1347	 1379	 1382	 1361	 1224	 1150	 1058	937.7	895.7	891.0	832.5	806.5	796.7	770.8	758.0	770.1	773.8	767.6	741.8	753.1	775.2	726.5	724.2	684.6	639.4	581.8	554.3	511.4	473.6	431.5	404.9	374.5	371.6	354.1	312.9	271.6	244.5	218.0
505.0	198.6	244.7	395.8	446.2	507.2	650.0	799.0	787.8	932.6	922.1	 1011	 1035	 1097	 1226	 1288	 1307	 1239	 1186	 1081	980.1	904.9	838.9	811.2	779.7	750.5	734.3	716.7	713.4	700.7	715.4	699.2	700.7	683.8	721.7	690.1	673.6	633.6	591.3	540.2	519.2	474.5	447.0	409.6	391.4	360.2	341.8	340.0	320.5	268.6	248.0	226.5
510.0	153.3	270.3	293.0	419.6	521.8	678.4	563.4	657.7	721.8	870.1	902.4	935.3	 1003	 1066	 1145	 1164	 1169	 1050	961.0	916.9	825.1	788.4	761.7	701.5	689.5	673.0	659.1	638.6	644.0	633.5	626.8	631.4	647.7	645.0	628.7	618.6	592.4	550.2	497.8	484.9	436.0	418.3	387.6	368.2	346.7	324.1	310.2	303.0	276.0	247.5	218.6
515.0	183.9	237.4	236.9	424.8	505.9	513.4	555.8	643.9	710.4	765.4	812.7	788.0	934.2	957.1	 1112	 1089	 1068	988.0	922.2	836.3	800.4	713.7	698.7	663.5	646.9	597.2	599.0	596.6	596.6	572.7	581.1	571.9	584.7	606.3	592.7	565.9	512.4	496.1	468.5	443.9	416.9	381.8	368.2	348.6	330.9	301.0	277.1	280.9	280.8	241.0	216.5
520.0	167.2	155.0	351.3	344.4	409.4	466.7	567.8	589.5	654.0	727.0	725.0	850.4	811.6	923.5	 1020	 1009	961.0	890.0	829.8	759.1	719.0	680.3	645.9	603.3	584.3	573.0	531.5	533.0	521.4	533.0	521.5	522.0	545.6	533.9	524.7	515.4	473.5	447.5	444.6	410.4	382.9	364.9	336.3	316.8	305.4	272.9	270.4	267.5	250.9	238.6	209.1
525.0	184.5	190.2	284.1	349.1	325.9	483.4	540.1	536.3	630.1	595.9	699.9	763.3	770.8	810.4	862.2	916.4	838.2	828.8	760.4	711.1	632.6	609.8	583.2	553.1	530.5	523.7	482.1	492.1	479.3	489.2	464.4	474.1	481.9	478.3	478.4	466.0	436.9	414.4	401.8	370.4	344.1	330.7	308.8	300.0	281.2	262.1	247.6	241.2	237.0	226.7	208.5
530.0	135.3	167.7	179.5	274.7	312.4	431.5	453.2	489.4	547.9	532.4	605.9	633.3	682.8	753.3	827.7	825.0	811.5	733.9	685.2	618.2	581.6	547.9	544.2	501.1	500.4	469.6	458.8	447.0	441.0	418.6	431.6	427.3	440.4	428.4	436.4	416.8	395.8	384.2	364.4	338.6	308.0	295.9	286.5	286.1	254.9	240.9	235.7	223.9	213.9	211.5	204.7
535.0	189.1	139.7	215.4	265.1	260.5	352.4	402.9	429.9	509.6	505.6	539.1	579.6	644.8	661.5	707.3	751.9	732.5	684.2	633.7	564.8	539.2	525.2	492.1	460.7	441.6	428.0	393.8	392.2	403.7	385.7	384.5	366.0	391.9	395.6	392.4	383.2	348.1	333.8	313.7	313.5	281.4	277.7	258.6	251.6	236.0	225.9	213.0	209.5	196.9	191.5	187.3
540.0	113.3	114.0	200.0	312.7	276.4	319.3	345.8	429.3	459.2	442.6	448.3	559.2	554.9	609.2	693.7	688.0	642.3	569.1	576.7	533.8	486.0	472.9	443.2	429.0	402.3	366.3	366.8	362.9	343.5	334.3	335.2	337.3	339.9	341.9	347.9	343.5	319.0	302.5	282.4	267.5	253.2	245.3	240.7	223.9	212.3	200.4	193.3	186.8	174.8	167.8	160.7
545.0	81.18	127.3	213.6	224.0	244.5	283.6	335.5	349.1	402.3	401.0	402.4	502.2	526.6	528.2	611.4	691.4	601.5	556.3	529.3	479.8	435.2	414.6	384.0	373.0	349.1	331.4	325.9	324.1	315.7	301.4	301.6	310.2	318.4	307.9	312.5	297.0	299.5	265.4	252.7	240.4	235.9	215.3	218.2	205.7	184.6	189.6	180.3	171.5	165.3	156.2	150.0
550.0	111.4	112.0	151.8	210.0	208.5	246.7	308.0	276.6	332.1	402.2	445.7	416.5	454.3	508.2	537.5	930.5	605.1	493.6	474.1	432.4	397.2	368.6	346.0	323.6	308.9	312.8	302.6	288.0	291.3	277.3	287.4	275.5	292.0	277.9	287.9	265.4	255.8	249.4	237.1	227.1	215.7	203.6	199.4	184.6	181.4	168.1	163.3	155.6	155.8	144.2	134.3
