Sample:	'SLABO1-5-5-320
File name:	2N12.FD3
Run Date:	15:19:38, 08/17/2022
Operator:	Administrator
Comment:	'

Instrument
Model:	F-7000 FL Spectrophotometer
Serial Number:	2354-007
ROM Version:	5J14000 06

Instrument Parameters
Measurement type:	3-D Scan
Data mode:	Fluorescence
EX  Start WL:	200.0 nm
EX  End WL:	450.0 nm
EX Sampling Interval:	5.0 nm
EM  Start WL:	280.0 nm
EM  End WL:	550.0 nm
EM Sampling Interval:	5.0 nm
Scan speed:	12000 nm/min
EX Slit:	5.0 nm
EM Slit:	5.0 nm
PMT Voltage:	700 V
Response:	Auto 
Corrected spectra:	Off
Shutter control:	On
Contour interval:	25.000

Peak integration
Integration method:	Rectangular
Sensitivity:	1
Threshold:	1.000

Peaks
No.	ApexEX/EM(nm)	Height(Data)
1	205.0/320.0	665.1
2	210.0/315.0	641.4
3	210.0/330.0	664.6
4	210.0/340.0	599.5
5	210.0/355.0	665.3
6	215.0/310.0	559.4
7	215.0/325.0	662.8
8	215.0/530.0	411.7
9	220.0/305.0	637.9
10	220.0/315.0	646.0
11	225.0/330.0	764.5
12	230.0/530.0	571.5
13	240.0/410.0	 1844
14	245.0/315.0	289.8
15	245.0/440.0	 1976
16	255.0/425.0	 2241
17	270.0/430.0	 2534
18	275.0/305.0	559.7
19	275.0/445.0	 2529
20	280.0/310.0	683.7
21	280.0/420.0	 2384
22	285.0/315.0	732.0
23	290.0/320.0	659.3
24	295.0/330.0	621.0
25	300.0/335.0	638.5
26	305.0/340.0	652.0
27	305.0/415.0	 1971
28	305.0/440.0	 1932
29	310.0/345.0	683.0
30	315.0/415.0	 2013
31	320.0/410.0	 2037
32	325.0/425.0	 2034
33	330.0/415.0	 2053
34	335.0/430.0	 2017
35	375.0/320.0	23.59
36	405.0/320.0	11.16
37	425.0/330.0	10.92
38	435.0/300.0	5.165
39	440.0/375.0	10.95

Data Points
	200.0	205.0	210.0	215.0	220.0	225.0	230.0	235.0	240.0	245.0	250.0	255.0	260.0	265.0	270.0	275.0	280.0	285.0	290.0	295.0	300.0	305.0	310.0	315.0	320.0	325.0	330.0	335.0	340.0	345.0	350.0	355.0	360.0	365.0	370.0	375.0	380.0	385.0	390.0	395.0	400.0	405.0	410.0	415.0	420.0	425.0	430.0	435.0	440.0	445.0	450.0
280.0	11.74	43.93	23.73	24.40	28.84	46.52	16.70	4.457	13.73	19.93	48.53	57.63	44.02	16.77	24.39	 2864	9999.9	 5334	132.7	32.44	25.59	26.12	20.36	16.45	15.77	11.60	13.11	9.927	11.91	8.068	10.36	9.310	8.758	10.37	10.20	7.662	6.263	5.757	6.321	4.501	3.845	4.263	2.598	2.141	2.642	3.051	2.434	2.811	2.787	1.887	2.128
285.0	183.9	148.2	135.1	109.9	144.9	150.3	88.69	52.12	38.09	55.43	97.19	103.2	136.0	92.50	60.87	227.2	 6636	9999.9	9999.9	928.5	42.83	36.39	31.34	29.67	19.83	21.29	14.94	11.24	13.35	10.30	9.966	9.991	9.690	10.59	9.383	7.448	7.788	5.916	5.619	5.759	5.035	4.917	3.387	2.919	3.853	3.635	1.976	2.962	2.394	2.616	2.008
290.0	398.8	201.6	259.1	260.5	335.8	298.0	159.2	91.23	74.69	91.71	123.9	127.9	154.7	230.0	134.8	105.3	507.5	9999.9	9999.9	9999.9	 1262	55.64	47.67	41.49	29.12	22.81	18.60	15.15	14.99	12.03	13.25	13.60	11.55	8.669	10.86	9.747	7.441	7.823	6.610	6.499	5.672	6.257	4.989	2.769	3.522	3.263	3.388	3.023	2.219	3.760	3.034
295.0	542.2	331.1	306.4	296.2	469.6	381.9	247.1	143.8	96.47	137.6	168.3	154.3	144.4	267.5	352.5	189.3	169.0	758.8	9999.9	9999.9	9999.9	 1614	73.83	60.15	47.09	36.19	25.53	20.41	15.46	16.50	13.79	14.93	11.02	13.21	10.74	10.88	10.03	7.883	7.977	7.527	5.286	5.257	5.709	4.757	3.479	4.166	3.156	4.909	4.626	4.170	4.303
300.0	682.2	534.3	415.6	412.8	514.3	480.9	352.8	209.0	154.5	168.1	179.1	176.4	172.4	207.6	420.1	447.0	232.1	212.4	789.0	9999.9	9999.9	9999.9	 1670	94.59	63.33	52.65	39.07	31.19	25.48	18.95	18.60	16.49	15.03	14.92	12.60	12.30	10.71	9.577	7.777	6.840	8.197	6.331	5.798	6.524	4.267	4.590	3.936	5.165	4.203	4.330	4.764
305.0	562.7	595.3	532.4	520.2	637.9	574.9	352.0	251.0	179.7	166.9	170.4	209.2	206.4	234.0	296.9	559.7	471.2	247.1	222.2	788.2	9999.9	9999.9	9999.9	 1906	91.24	76.47	59.52	49.84	30.75	28.03	20.06	20.18	18.30	11.66	14.58	12.97	10.37	8.060	9.478	9.303	8.113	8.647	6.227	5.905	4.745	5.911	5.186	4.130	4.720	5.652	3.754
310.0	528.8	583.4	481.9	559.4	533.5	506.2	427.5	334.4	216.2	248.5	259.7	224.3	222.3	284.3	297.8	395.1	683.7	429.0	214.6	195.0	792.1	9999.9	9999.9	9999.9	 2016	112.9	83.96	65.05	46.12	35.10	24.63	22.69	20.52	19.37	16.62	16.17	11.71	11.33	12.06	10.62	9.622	7.364	6.372	6.079	6.592	6.014	6.616	4.439	5.491	5.062	6.320
315.0	476.8	609.2	641.4	535.5	646.0	607.3	417.2	339.7	266.6	289.8	275.9	262.5	272.2	308.2	333.4	393.0	483.9	732.0	352.9	186.1	189.1	808.6	9999.9	9999.9	9999.9	 1763	120.4	92.25	70.89	48.63	36.67	24.29	22.98	21.09	18.99	15.28	13.52	11.01	10.03	11.22	9.859	9.466	8.133	7.737	7.121	6.145	6.826	6.141	6.284	6.192	5.870
320.0	487.6	665.1	570.4	434.7	519.2	605.3	493.0	390.4	285.7	269.1	300.1	296.5	311.2	309.5	357.9	427.5	424.0	569.1	659.3	282.8	175.1	195.7	836.9	9999.9	9999.9	9999.9	 1756	131.4	91.33	73.19	54.86	35.22	31.56	23.26	20.58	23.59	14.51	12.55	11.92	11.50	9.194	11.16	7.756	8.461	6.874	7.354	6.594	6.232	3.805	5.618	5.304
325.0	560.9	553.0	522.3	662.8	577.7	620.7	648.7	471.6	341.7	346.1	325.3	348.4	348.5	356.3	413.0	471.1	485.9	467.6	607.5	584.6	250.9	186.4	191.2	819.5	9999.9	9999.9	9999.9	 1912	136.0	97.75	76.04	53.29	36.76	30.35	24.72	17.91	17.34	16.22	12.94	13.02	9.854	9.134	8.269	7.850	7.728	7.645	6.823	7.520	6.910	6.882	5.041
330.0	465.2	466.8	664.6	606.7	630.1	764.5	653.5	507.5	374.4	372.5	367.2	349.8	380.1	366.5	454.7	500.5	522.6	515.4	461.7	621.0	507.8	225.8	185.3	200.5	826.6	9999.9	9999.9	9999.9	 1910	146.8	105.0	76.97	61.56	40.68	32.22	25.28	19.99	19.90	14.73	13.42	11.44	9.383	8.287	8.146	7.885	10.92	7.250	7.674	8.144	6.865	5.465
335.0	521.2	521.1	443.6	527.0	578.1	676.6	633.4	578.4	451.0	408.9	422.2	380.1	414.5	421.8	469.9	539.1	582.5	543.8	490.4	470.1	638.5	437.4	225.3	203.3	222.9	837.5	9999.9	9999.9	9999.9	 1971	154.0	106.8	87.26	62.08	39.05	29.40	22.95	18.77	17.34	12.86	11.38	10.04	8.708	9.283	6.657	7.617	7.208	7.332	7.222	6.013	6.300
340.0	492.1	439.5	599.5	509.3	630.0	705.1	684.1	585.8	563.5	451.9	418.4	472.0	467.8	438.1	502.9	573.8	607.5	605.7	550.8	464.5	491.6	652.0	410.0	254.8	208.8	249.6	866.4	9999.9	9999.9	9999.9	 2213	157.0	122.2	84.52	66.57	37.75	31.38	21.06	18.54	11.71	8.995	10.65	8.785	9.718	8.264	8.151	8.502	7.048	6.459	6.261	6.332
345.0	465.4	489.5	540.3	604.4	683.8	711.0	712.7	702.0	580.1	574.9	587.8	482.3	470.6	493.7	555.1	625.4	656.7	660.1	632.8	569.3	461.0	533.8	683.0	410.3	322.3	287.4	283.9	886.3	9999.9	9999.9	9999.9	 2436	161.8	109.8	82.16	58.58	43.76	30.35	20.44	17.90	14.01	14.11	11.51	8.962	9.356	6.445	7.545	7.821	8.351	6.569	6.463
350.0	538.0	517.2	547.6	514.0	592.2	740.8	755.1	701.6	656.6	588.9	609.7	594.2	583.1	593.4	624.5	710.8	744.3	706.6	695.9	625.0	573.5	527.9	644.3	740.2	443.4	374.3	322.8	323.1	909.3	9999.9	9999.9	9999.9	 2484	170.2	115.9	88.22	59.24	37.68	27.33	19.15	14.72	16.06	10.66	11.70	9.000	8.360	8.580	7.599	7.502	7.423	6.719
355.0	504.0	597.3	665.3	620.1	742.8	801.6	772.4	804.2	718.3	691.8	673.3	676.5	698.1	700.6	762.1	837.3	841.4	802.5	806.4	718.5	675.8	647.5	630.2	775.9	785.2	530.1	453.0	392.6	374.0	929.2	9999.9	9999.9	9999.9	 2645	165.3	113.5	73.81	56.60	35.33	23.05	19.55	15.02	14.29	11.16	9.404	9.012	9.627	7.140	8.267	6.437	7.423
360.0	519.7	434.4	609.4	642.2	762.6	794.8	757.0	853.7	882.7	806.5	764.5	768.1	787.8	836.4	871.2	921.3	926.2	959.9	894.1	861.7	781.8	776.1	748.4	796.3	924.2	823.2	619.9	538.0	447.0	408.9	956.8	9999.9	9999.9	9999.9	 2439	160.2	111.2	78.17	56.83	34.91	25.81	19.89	14.98	11.92	9.742	9.386	8.989	7.534	9.138	7.260	7.440
365.0	556.1	469.0	557.7	714.8	696.6	808.3	988.9	939.0	957.1	929.6	921.8	863.9	874.4	924.4	 1029	 1026	 1028	 1068	992.9	973.4	925.0	910.2	899.6	897.3	930.1	 1079	901.1	694.8	582.5	493.2	416.9	942.2	9999.9	9999.9	9999.9	 2669	164.8	104.6	71.28	49.93	29.92	25.51	19.95	15.19	13.47	9.789	10.88	8.587	9.168	8.347	7.337
370.0	534.7	496.2	577.9	677.7	625.0	807.5	 1046	 1074	993.7	941.9	930.7	972.8	 1073	 1104	 1215	 1204	 1215	 1174	 1113	 1099	 1026	 1053	 1065	 1091	 1066	 1075	 1188	944.7	737.7	634.5	484.8	412.6	935.0	9999.9	9999.9	9999.9	 2604	146.7	102.9	66.94	44.81	31.79	23.39	18.99	15.57	12.93	11.51	9.947	9.609	9.062	8.404
375.0	505.0	630.9	647.9	665.8	856.9	895.9	 1032	 1153	 1139	 1131	 1166	 1160	 1265	 1314	 1304	 1299	 1329	 1335	 1276	 1206	 1224	 1227	 1231	 1240	 1203	 1219	 1230	 1256	963.4	772.4	629.1	501.0	416.2	945.8	9999.9	9999.9	9999.9	 2742	151.1	92.70	62.95	44.62	30.67	21.83	17.75	11.85	11.85	9.867	10.95	9.878	6.898
380.0	506.7	602.7	684.0	789.8	877.9	953.4	 1083	 1166	 1189	 1284	 1256	 1323	 1333	 1408	 1508	 1479	 1440	 1444	 1364	 1346	 1320	 1320	 1369	 1344	 1361	 1315	 1292	 1362	 1272	973.5	788.7	636.4	506.2	429.8	936.6	9999.9	9999.9	9999.9	 2464	126.0	84.50	60.91	42.10	32.21	22.81	17.29	13.28	10.51	10.78	10.97	9.621
385.0	549.6	596.1	638.3	794.0	974.9	 1178	 1160	 1252	 1414	 1400	 1449	 1490	 1469	 1542	 1636	 1650	 1677	 1613	 1499	 1472	 1426	 1467	 1506	 1493	 1520	 1499	 1478	 1439	 1448	 1275	978.0	809.5	647.9	507.9	432.9	930.9	9999.9	9999.9	9999.9	 2539	125.5	83.23	56.79	41.24	27.22	19.84	15.28	13.97	9.782	10.03	9.636
390.0	515.9	600.3	646.7	803.6	 1016	 1217	 1239	 1390	 1489	 1518	 1500	 1562	 1647	 1731	 1797	 1782	 1697	 1701	 1644	 1618	 1566	 1574	 1636	 1629	 1645	 1613	 1612	 1569	 1513	 1474	 1172	959.0	787.4	630.5	502.6	414.1	910.5	9999.9	9999.9	9999.9	 2393	115.4	79.60	57.65	40.23	27.32	20.55	14.91	15.07	10.27	10.71
395.0	492.7	739.7	757.8	864.5	 1042	 1156	 1430	 1482	 1549	 1677	 1739	 1731	 1865	 1915	 1959	 1956	 1911	 1852	 1768	 1643	 1684	 1682	 1754	 1776	 1808	 1771	 1741	 1703	 1570	 1503	 1439	 1169	976.7	786.4	613.1	476.8	389.2	906.1	9999.9	9999.9	9999.9	 2543	113.2	70.98	53.29	36.40	25.27	19.81	16.44	14.63	10.80
400.0	465.1	630.8	785.9	827.2	 1072	 1386	 1547	 1536	 1571	 1819	 1897	 1904	 1964	 1915	 2009	 2119	 2057	 1931	 1868	 1793	 1750	 1792	 1848	 1840	 1890	 1865	 1841	 1796	 1701	 1584	 1551	 1436	 1123	939.2	747.1	608.7	450.8	380.2	897.5	9999.9	9999.9	9999.9	 2060	103.7	68.88	46.84	35.10	25.17	19.42	17.39	12.12
405.0	640.0	708.9	680.8	 1095	 1116	 1394	 1636	 1629	 1661	 1800	 1892	 1874	 2075	 2059	 2151	 2190	 2054	 2028	 1929	 1851	 1829	 1843	 1851	 1922	 1930	 1947	 1913	 1876	 1824	 1696	 1589	 1568	 1326	 1072	912.4	729.0	569.8	418.5	333.9	874.5	9999.9	9999.9	9999.9	 1897	93.88	63.60	41.82	32.66	21.63	19.11	13.12
410.0	507.7	720.5	859.0	901.8	 1320	 1520	 1639	 1680	 1844	 1791	 1888	 2026	 2104	 2227	 2219	 2332	 2250	 2158	 2070	 1900	 1871	 1868	 1959	 1976	 2037	 1980	 1979	 1942	 1889	 1779	 1669	 1559	 1523	 1304	 1058	860.2	684.8	509.4	375.1	335.0	854.9	9999.9	9999.9	9999.9	 1704	95.26	62.37	40.75	31.06	23.10	17.78
415.0	591.8	701.2	936.8	 1042	 1253	 1557	 1549	 1682	 1810	 1790	 1960	 2104	 2154	 2259	 2325	 2344	 2240	 2141	 2101	 1964	 1944	 1971	 1921	 2013	 1985	 1996	 2053	 2031	 1963	 1824	 1752	 1612	 1558	 1518	 1237	 1007	802.7	616.2	484.3	359.7	313.0	836.9	9999.9	9999.9	9999.9	 1749	84.65	53.18	38.87	31.66	22.97
420.0	486.0	839.8	852.1	877.8	 1240	 1496	 1670	 1686	 1814	 1900	 2129	 2068	 2241	 2259	 2366	 2376	 2384	 2263	 2096	 2031	 1976	 1935	 1951	 1986	 2008	 2029	 2020	 1985	 1994	 1891	 1808	 1710	 1600	 1538	 1415	 1145	891.5	743.6	556.5	434.2	340.1	290.4	828.4	9999.9	9999.9	9999.9	 1521	76.97	51.18	38.92	30.98
425.0	518.6	728.6	840.9	965.4	 1264	 1468	 1649	 1653	 1912	 1957	 2101	 2241	 2170	 2230	 2395	 2395	 2334	 2242	 2108	 1991	 1937	 1914	 1959	 1976	 2004	 2034	 2026	 2006	 1971	 1922	 1836	 1758	 1647	 1557	 1499	 1294	 1010	812.1	654.0	512.8	392.3	304.9	273.9	816.2	9999.9	9999.9	9999.9	 1314	77.12	51.96	33.53
430.0	506.6	716.4	790.8	902.1	 1213	 1454	 1604	 1695	 1873	 1948	 2045	 2164	 2176	 2307	 2534	 2490	 2335	 2291	 2148	 2000	 1918	 1938	 1945	 1971	 1982	 1997	 1967	 2017	 1958	 1917	 1836	 1786	 1691	 1607	 1488	 1386	 1129	893.8	733.9	602.8	475.0	379.7	294.3	271.2	805.9	9999.9	9999.9	9999.9	 1201	72.83	48.81
435.0	401.7	623.4	774.8	 1019	 1234	 1446	 1642	 1747	 1808	 1832	 1929	 2192	 2344	 2402	 2532	 2502	 2419	 2280	 2138	 1995	 1935	 1902	 1884	 1919	 1964	 1973	 1966	 1961	 1940	 1915	 1844	 1789	 1711	 1651	 1522	 1391	 1279	 1034	821.3	669.9	548.9	438.1	352.5	279.7	253.4	796.8	9999.9	9999.9	9999.9	 1139	68.45
440.0	373.1	527.7	971.6	999.6	 1143	 1356	 1612	 1735	 1883	 1976	 1919	 2147	 2310	 2424	 2523	 2528	 2393	 2315	 2119	 1962	 1888	 1932	 1900	 1921	 1895	 1943	 1924	 1919	 1931	 1868	 1823	 1806	 1714	 1663	 1558	 1420	 1287	 1135	924.0	746.5	609.5	506.9	409.3	327.8	261.3	258.6	795.3	9999.9	9999.9	9999.9	 1000
445.0	483.4	594.0	867.4	934.4	 1141	 1490	 1578	 1561	 1763	 1847	 1917	 2117	 2200	 2312	 2404	 2529	 2400	 2303	 2139	 1967	 1875	 1826	 1853	 1863	 1856	 1839	 1871	 1890	 1865	 1842	 1803	 1775	 1744	 1682	 1538	 1408	 1244	 1146	992.9	796.6	658.5	565.3	458.1	385.7	303.3	257.7	248.6	794.5	9999.9	9999.9	9999.9
450.0	550.0	550.7	768.8	845.4	 1067	 1318	 1629	 1514	 1709	 1803	 1872	 2120	 2174	 2309	 2394	 2496	 2438	 2243	 2109	 1898	 1850	 1789	 1761	 1781	 1793	 1775	 1799	 1821	 1771	 1782	 1755	 1697	 1678	 1635	 1565	 1448	 1270	 1128	 1062	891.3	710.5	621.2	504.6	426.9	354.4	292.5	243.5	236.2	795.4	9999.9	9999.9
455.0	441.1	590.0	766.6	759.5	923.6	 1413	 1412	 1580	 1628	 1731	 1809	 2076	 2097	 2180	 2383	 2488	 2330	 2162	 2053	 1911	 1759	 1686	 1737	 1707	 1728	 1731	 1719	 1699	 1725	 1660	 1646	 1649	 1621	 1609	 1545	 1416	 1257	 1125	 1012	941.3	772.0	646.9	553.3	460.5	400.3	331.1	276.0	232.4	222.2	783.4	9999.9
460.0	490.0	599.2	758.0	848.8	 1042	 1225	 1347	 1475	 1441	 1622	 1781	 1835	 1993	 2089	 2292	 2270	 2240	 2084	 1921	 1850	 1686	 1652	 1607	 1621	 1641	 1610	 1632	 1615	 1615	 1603	 1574	 1576	 1568	 1546	 1479	 1364	 1262	 1137	981.6	909.6	833.3	686.9	583.0	499.3	425.6	373.8	303.7	256.1	217.3	214.7	772.2
465.0	352.5	576.2	653.2	722.1	922.9	 1035	 1248	 1419	 1520	 1560	 1691	 1808	 1944	 2053	 2185	 2241	 2118	 2029	 1841	 1737	 1610	 1613	 1553	 1506	 1499	 1512	 1531	 1548	 1509	 1520	 1469	 1504	 1487	 1448	 1414	 1340	 1220	 1088	968.8	871.4	826.4	731.0	616.7	533.3	455.2	392.3	343.3	292.8	235.4	208.7	207.1
470.0	478.8	577.1	696.8	675.3	814.2	 1147	 1298	 1254	 1448	 1440	 1578	 1619	 1865	 2019	 2045	 2097	 1980	 1953	 1766	 1639	 1562	 1503	 1464	 1436	 1413	 1385	 1434	 1424	 1425	 1395	 1416	 1381	 1390	 1397	 1342	 1257	 1188	 1052	942.6	869.8	778.7	727.0	647.9	548.5	481.5	422.3	364.3	308.2	269.3	226.0	188.1
475.0	399.8	473.0	453.8	632.5	768.1	999.8	 1131	 1196	 1287	 1417	 1483	 1590	 1702	 1876	 1952	 2004	 1925	 1835	 1753	 1580	 1473	 1410	 1393	 1337	 1339	 1296	 1272	 1317	 1314	 1320	 1284	 1295	 1287	 1320	 1263	 1192	 1111	 1008	921.2	843.5	742.7	695.3	665.8	565.3	476.2	446.9	388.1	332.3	282.8	243.9	208.4
480.0	269.1	483.6	448.0	652.3	755.2	961.6	 1029	 1110	 1187	 1254	 1380	 1527	 1589	 1755	 1804	 1891	 1779	 1746	 1603	 1458	 1393	 1368	 1304	 1269	 1240	 1222	 1215	 1234	 1232	 1210	 1192	 1235	 1202	 1209	 1186	 1144	 1059	973.4	908.3	802.8	738.5	670.9	632.7	585.4	505.4	450.0	390.7	348.9	306.8	264.2	218.8
485.0	239.9	387.4	513.1	723.2	668.5	835.8	 1050	997.5	 1169	 1155	 1352	 1339	 1546	 1648	 1765	 1813	 1724	 1642	 1541	 1432	 1333	 1268	 1220	 1188	 1171	 1159	 1152	 1142	 1156	 1138	 1133	 1145	 1154	 1136	 1134	 1062	 1006	935.6	840.2	779.3	714.0	658.8	608.6	584.5	525.6	471.4	411.7	366.4	323.0	283.6	252.2
490.0	297.0	341.6	499.1	631.5	653.1	835.7	827.4	 1035	 1216	 1162	 1287	 1349	 1497	 1548	 1689	 1738	 1675	 1593	 1477	 1391	 1279	 1229	 1192	 1160	 1134	 1091	 1094	 1067	 1085	 1076	 1082	 1066	 1086	 1082	 1070	 1022	954.5	877.4	822.6	740.3	697.0	656.1	587.4	550.9	529.5	476.9	415.4	380.8	335.3	304.9	265.8
495.0	302.8	306.1	434.5	414.2	695.6	784.3	908.2	 1023	 1049	 1087	 1235	 1262	 1422	 1505	 1558	 1594	 1644	 1544	 1440	 1311	 1226	 1159	 1106	 1088	 1063	 1043	 1019	994.9	 1006	 1006	 1003	 1004	993.4	 1018	 1004	973.0	902.1	845.8	787.2	738.0	676.0	616.1	573.5	533.0	502.5	490.4	432.8	391.5	344.9	315.8	275.0
500.0	347.7	277.6	351.8	503.9	672.0	653.1	776.6	885.5	948.4	 1101	 1067	 1155	 1287	 1376	 1500	 1482	 1498	 1450	 1328	 1235	 1146	 1082	 1043	 1025	972.1	962.5	942.2	929.2	937.9	911.9	931.6	932.8	961.5	952.4	943.0	886.3	839.6	794.4	737.7	681.2	632.7	599.6	554.4	517.2	467.7	464.5	437.0	385.0	346.3	313.1	287.1
505.0	241.6	332.8	333.1	445.6	546.1	687.1	760.4	817.5	913.0	918.1	979.7	 1177	 1177	 1283	 1443	 1439	 1422	 1319	 1251	 1161	 1080	 1038	963.9	925.4	901.9	893.6	874.3	851.4	851.3	841.6	841.7	830.4	874.6	875.0	862.3	842.5	789.6	740.0	701.7	653.7	601.7	559.1	532.1	492.5	459.4	436.4	421.1	389.3	348.5	319.6	283.5
510.0	294.5	343.2	269.6	460.7	480.7	632.0	779.5	786.9	877.0	876.3	957.5	 1007	 1136	 1211	 1315	 1312	 1289	 1298	 1182	 1069	996.0	946.6	905.5	869.2	869.4	807.2	790.8	770.0	790.8	769.0	784.8	777.6	769.9	787.8	803.3	779.0	738.1	679.5	629.2	599.0	571.2	532.8	499.7	468.8	436.2	418.7	391.4	383.5	348.1	309.1	282.4
515.0	220.5	208.4	382.8	300.5	554.8	549.0	672.5	765.9	759.9	860.2	877.3	949.7	 1001	 1124	 1176	 1261	 1231	 1163	 1091	991.2	916.6	873.2	829.5	805.0	804.2	760.8	751.0	722.2	727.2	695.6	717.5	738.0	706.3	725.6	723.2	702.0	663.9	615.9	587.8	550.0	515.0	504.8	465.4	436.7	406.7	387.1	359.4	350.0	345.5	313.5	274.2
520.0	258.3	221.6	297.3	354.5	517.2	469.9	553.5	577.8	671.6	728.8	787.3	842.9	932.2	 1037	 1119	 1107	 1129	 1055	 1000	906.9	849.6	787.8	775.9	738.2	709.2	672.2	683.1	665.0	658.7	624.5	644.1	642.2	660.0	670.8	647.4	651.1	640.6	560.0	531.1	505.3	479.7	457.5	421.2	406.4	382.9	361.7	341.6	328.7	323.3	312.0	274.0
525.0	182.2	207.8	332.4	360.7	433.0	529.6	505.8	570.7	612.4	668.0	734.9	772.2	820.1	893.8	967.5	 1036	 1018	966.2	913.5	834.3	767.5	743.3	702.0	682.9	650.9	626.0	594.4	595.1	583.6	600.6	589.6	587.6	589.5	594.5	605.9	583.3	555.5	516.2	493.7	469.5	444.6	421.3	394.5	384.3	352.3	340.6	322.5	305.9	298.8	290.9	269.7
530.0	229.8	143.8	265.3	411.7	360.4	366.0	571.5	465.3	588.2	627.9	619.8	700.9	777.5	802.6	857.2	910.4	901.8	877.5	851.2	745.5	697.7	700.3	634.5	628.8	607.4	583.5	561.2	557.8	536.2	527.0	528.7	532.8	524.8	543.6	554.2	535.7	512.1	468.5	440.4	426.0	407.8	375.7	355.3	340.5	320.3	318.7	302.7	279.6	269.4	263.6	262.5
535.0	170.5	163.1	188.7	307.4	283.2	425.8	433.5	447.3	482.0	569.4	602.6	628.4	650.8	763.1	835.8	828.9	852.2	846.8	726.7	647.2	627.6	620.6	595.6	561.0	540.4	507.5	515.2	491.1	485.4	470.1	472.8	469.6	477.1	490.0	492.1	459.6	456.6	420.9	407.7	372.5	367.2	352.4	322.8	312.3	292.9	290.9	261.7	268.8	251.0	244.6	239.2
540.0	139.3	164.0	193.0	234.3	281.5	294.5	391.2	393.6	478.3	496.7	549.0	602.4	656.2	658.0	762.2	850.7	745.7	730.8	692.2	616.5	597.5	534.7	518.5	503.4	492.6	459.5	460.4	430.3	436.5	425.7	427.4	431.7	433.0	440.4	437.3	420.9	398.2	374.7	362.5	334.9	326.8	300.8	299.5	277.9	267.1	264.3	247.0	235.8	236.7	218.7	212.1
545.0	118.4	180.5	177.6	264.3	248.8	266.8	397.8	388.6	444.8	483.4	452.9	523.3	569.3	580.4	739.3	912.4	703.5	624.3	592.8	579.5	512.7	494.0	489.8	446.4	442.2	421.9	415.1	386.7	395.7	369.5	385.6	381.0	384.2	384.2	390.2	375.7	360.0	345.6	332.3	310.1	289.1	275.2	266.4	257.6	243.0	238.6	227.1	220.2	212.2	200.3	194.4
550.0	134.9	147.6	143.6	208.0	193.5	291.2	332.5	319.4	378.4	388.3	442.0	476.9	502.4	538.7	641.2	 1161	812.6	537.6	597.7	524.4	485.6	475.0	438.3	410.0	394.7	384.2	361.1	366.9	352.3	346.8	337.8	342.0	358.3	361.9	344.9	345.9	328.2	303.8	308.8	282.9	268.5	253.1	241.3	239.0	221.2	214.9	211.8	205.7	194.4	187.9	184.6
