Sample:	'SLABO1-5-5-320
File name:	2N2.FD3
Run Date:	15:59:28, 08/17/2022
Operator:	Administrator
Comment:	'

Instrument
Model:	F-7000 FL Spectrophotometer
Serial Number:	2354-007
ROM Version:	5J14000 06

Instrument Parameters
Measurement type:	3-D Scan
Data mode:	Fluorescence
EX  Start WL:	200.0 nm
EX  End WL:	450.0 nm
EX Sampling Interval:	5.0 nm
EM  Start WL:	280.0 nm
EM  End WL:	550.0 nm
EM Sampling Interval:	5.0 nm
Scan speed:	12000 nm/min
EX Slit:	5.0 nm
EM Slit:	5.0 nm
PMT Voltage:	700 V
Response:	Auto 
Corrected spectra:	Off
Shutter control:	On
Contour interval:	25.000

Peak integration
Integration method:	Rectangular
Sensitivity:	1
Threshold:	1.000

Peaks
No.	ApexEX/EM(nm)	Height(Data)
1	205.0/305.0	925.8
2	205.0/320.0	881.9
3	205.0/330.0	879.4
4	205.0/350.0	894.3
5	205.0/380.0	815.6
6	205.0/490.0	399.3
7	210.0/340.0	926.3
8	210.0/375.0	774.5
9	210.0/485.0	444.1
10	210.0/515.0	265.2
11	210.0/525.0	253.4
12	215.0/350.0	853.1
13	215.0/370.0	788.7
14	215.0/405.0	839.1
15	215.0/450.0	721.0
16	215.0/460.0	612.9
17	215.0/530.0	250.0
18	215.0/545.0	170.1
19	220.0/310.0	855.4
20	220.0/360.0	835.2
21	220.0/380.0	823.2
22	220.0/395.0	945.1
23	220.0/420.0	907.0
24	220.0/470.0	660.2
25	220.0/505.0	381.5
26	225.0/305.0	974.5
27	225.0/315.0	816.2
28	225.0/325.0	820.4
29	225.0/340.0	833.7
30	225.0/425.0	916.7
31	225.0/475.0	555.1
32	230.0/335.0	839.2
33	230.0/365.0	817.4
34	230.0/400.0	859.1
35	230.0/420.0	894.5
36	235.0/375.0	800.2
37	235.0/430.0	855.2
38	240.0/455.0	771.9
39	240.0/540.0	224.9
40	245.0/400.0	891.9
41	245.0/420.0	926.6
42	250.0/410.0	912.9
43	250.0/435.0	905.5
44	250.0/445.0	866.7
45	255.0/335.0	427.2
46	255.0/375.0	648.3
47	255.0/430.0	897.3
48	260.0/350.0	461.0
49	260.0/415.0	892.0
50	260.0/440.0	886.3
51	265.0/420.0	891.3
52	270.0/410.0	870.6
53	270.0/435.0	927.3
54	270.0/445.0	884.9
55	275.0/305.0	688.5
56	275.0/350.0	520.2
57	275.0/400.0	836.9
58	275.0/420.0	931.7
59	275.0/430.0	928.0
60	275.0/450.0	871.9
61	280.0/310.0	837.0
62	280.0/340.0	518.4
63	280.0/410.0	859.6
64	280.0/440.0	881.1
65	285.0/315.0	787.7
66	290.0/320.0	703.6
67	295.0/325.0	605.8
68	300.0/335.0	610.0
69	300.0/425.0	769.6
70	305.0/340.0	617.3
71	310.0/345.0	609.0
72	310.0/410.0	812.5
73	315.0/350.0	565.4
74	320.0/360.0	637.5
75	325.0/365.0	665.1
76	325.0/420.0	845.3
77	330.0/370.0	692.6
78	330.0/425.0	836.9
79	335.0/375.0	689.3
80	340.0/385.0	726.2
81	345.0/390.0	728.7
82	350.0/395.0	689.2
83	355.0/405.0	697.0
84	360.0/410.0	696.9
85	365.0/415.0	695.9
86	370.0/425.0	639.5
87	390.0/290.0	18.16
88	395.0/305.0	22.24
89	405.0/325.0	20.70
90	420.0/490.0	183.2
91	435.0/325.0	14.79
92	440.0/515.0	115.2
93	445.0/525.0	102.7

Data Points
	200.0	205.0	210.0	215.0	220.0	225.0	230.0	235.0	240.0	245.0	250.0	255.0	260.0	265.0	270.0	275.0	280.0	285.0	290.0	295.0	300.0	305.0	310.0	315.0	320.0	325.0	330.0	335.0	340.0	345.0	350.0	355.0	360.0	365.0	370.0	375.0	380.0	385.0	390.0	395.0	400.0	405.0	410.0	415.0	420.0	425.0	430.0	435.0	440.0	445.0	450.0
280.0	95.87	100.8	57.15	52.96	68.08	76.84	56.53	38.75	15.23	36.86	42.16	76.22	37.93	28.26	29.22	 5028	9999.9	 9539	234.9	52.82	39.33	43.28	32.45	31.43	32.34	23.89	22.59	22.06	18.11	21.14	19.73	17.16	18.17	21.44	16.57	15.76	14.55	13.44	13.14	11.09	10.88	7.118	8.296	6.850	6.572	5.402	5.077	5.955	3.778	3.554	4.310
285.0	279.5	254.7	130.5	204.1	241.0	303.1	226.9	152.0	68.87	74.38	107.8	126.3	170.1	119.4	75.37	380.4	9999.9	9999.9	9999.9	 1651	65.34	64.93	56.03	46.93	37.16	29.48	25.80	25.81	23.86	25.88	23.92	20.57	20.43	22.98	20.85	15.14	16.90	14.60	15.31	11.95	11.68	10.56	8.400	7.231	6.992	6.257	5.550	5.536	6.764	4.714	5.955
290.0	462.0	517.6	318.3	420.0	426.2	583.5	440.4	238.1	142.7	135.5	155.2	172.3	214.9	321.8	154.5	124.0	760.9	9999.9	9999.9	9999.9	 2126	112.0	93.16	68.09	60.18	41.61	34.32	31.44	27.52	27.39	21.79	23.97	21.74	20.42	22.47	19.25	19.55	14.95	18.16	11.27	11.45	10.39	8.714	9.326	7.021	6.098	7.237	5.456	6.768	5.019	6.764
295.0	783.7	674.0	489.3	619.9	596.4	718.9	555.9	356.7	184.0	151.3	197.1	204.6	207.2	344.0	460.7	254.4	244.1	840.1	9999.9	9999.9	9999.9	 2858	125.5	103.5	87.18	70.35	55.77	39.97	39.42	37.17	28.75	26.01	26.52	27.57	24.96	22.63	19.62	17.07	17.05	14.35	12.95	11.62	10.99	12.52	9.011	8.996	8.334	8.746	6.947	8.139	8.194
300.0	944.6	745.5	633.7	641.5	694.7	856.9	710.1	491.1	236.3	212.6	247.0	220.8	213.3	273.2	543.6	547.8	321.0	249.6	888.5	9999.9	9999.9	9999.9	 3036	151.6	119.2	104.2	79.60	54.24	44.35	41.88	40.82	30.21	28.33	29.41	27.20	24.38	22.88	21.57	19.01	19.06	16.53	14.04	13.69	13.22	11.47	9.887	9.810	10.64	8.932	7.927	9.457
305.0	819.5	925.8	695.7	703.9	843.0	974.5	781.0	477.2	307.1	248.6	266.7	236.3	250.1	305.1	377.2	688.5	566.4	266.9	267.4	874.2	9999.9	9999.9	9999.9	 3565	180.9	144.9	112.7	83.18	59.41	47.87	45.68	36.81	36.44	31.56	28.01	28.61	22.01	21.92	18.24	22.24	14.21	14.37	15.16	12.95	12.37	12.68	10.98	9.501	8.859	9.498	9.037
310.0	 1001	814.6	938.8	769.7	855.4	771.8	687.0	485.8	341.3	316.3	285.3	287.5	298.0	329.7	373.4	452.4	837.0	514.8	231.4	246.2	907.2	9999.9	9999.9	9999.9	 3781	198.8	162.2	124.0	99.81	71.66	57.34	42.70	39.20	38.36	31.24	27.92	28.73	24.51	20.15	20.51	17.47	14.70	14.78	14.68	12.44	12.16	10.34	10.89	10.03	9.510	9.752
315.0	 1004	809.8	817.4	795.6	767.7	816.2	704.4	437.9	328.8	316.5	321.7	338.3	355.9	338.2	368.3	395.4	555.0	787.7	365.9	207.3	241.1	913.7	9999.9	9999.9	9999.9	 3364	238.8	173.2	138.4	105.9	75.08	54.35	46.34	48.46	38.06	37.08	32.21	22.76	22.83	20.79	19.65	19.00	17.55	14.60	13.30	11.88	11.73	12.15	10.44	10.02	9.519
320.0	809.4	881.9	784.4	757.5	723.2	777.5	665.3	487.8	374.1	335.9	309.6	321.8	377.8	350.3	403.4	435.3	429.3	587.3	703.6	298.4	203.7	260.8	965.4	9999.9	9999.9	9999.9	 3406	263.9	177.1	159.3	113.2	73.14	62.89	50.99	42.45	40.03	29.77	31.20	27.70	23.15	20.21	17.49	18.12	14.89	14.81	12.37	12.79	11.30	10.68	11.50	11.12
325.0	827.3	790.1	782.3	756.0	703.2	820.4	745.4	541.9	394.0	413.9	393.5	385.5	395.6	390.2	399.4	420.1	430.0	430.2	598.2	605.8	256.2	193.4	254.3	987.8	9999.9	9999.9	9999.9	 3752	290.2	210.0	156.3	117.0	83.06	64.92	53.06	42.66	41.73	31.56	27.63	24.50	18.57	20.70	16.49	18.43	13.86	11.64	12.99	14.79	13.40	12.77	12.13
330.0	800.9	879.4	774.0	734.4	741.3	724.9	751.1	523.1	458.8	414.8	360.8	406.4	414.9	396.7	415.8	444.5	448.3	428.8	400.6	595.4	538.6	232.2	191.1	256.6	964.1	9999.9	9999.9	9999.9	 3837	314.9	231.0	171.6	118.0	91.71	63.53	55.75	44.89	35.33	32.07	26.71	22.83	19.55	20.41	16.38	14.83	14.60	12.93	14.64	12.01	13.22	9.889
335.0	944.2	750.2	747.5	706.8	749.9	818.3	839.2	605.8	522.4	408.6	364.6	427.2	423.0	381.3	411.1	470.1	464.0	443.6	403.5	371.9	610.0	439.5	212.5	204.3	253.4	996.3	9999.9	9999.9	9999.9	 4113	340.8	236.1	180.6	126.9	90.79	66.47	52.42	39.17	35.14	28.45	27.42	20.43	20.94	17.87	18.20	15.61	13.94	13.62	11.97	14.25	11.65
340.0	849.8	777.6	926.3	766.5	824.7	833.7	832.9	644.8	562.6	467.2	433.0	387.3	418.0	385.6	438.4	482.1	518.4	448.8	405.1	380.3	363.1	617.3	367.4	222.1	195.2	282.1	998.8	9999.9	9999.9	9999.9	 4615	359.1	251.1	182.6	143.6	96.14	65.55	56.05	35.33	29.71	27.56	23.94	21.03	22.03	17.36	17.77	17.20	13.61	14.65	13.25	11.79
345.0	795.6	697.6	820.5	708.3	723.4	742.6	815.7	661.0	551.9	494.9	442.3	403.2	412.7	405.4	446.3	487.1	481.0	454.0	472.7	362.0	337.6	412.4	609.0	326.1	218.3	222.5	282.1	984.7	9999.9	9999.9	9999.9	 5202	371.4	254.4	181.3	137.9	96.99	68.25	46.82	37.67	27.47	27.45	23.26	21.52	20.00	17.68	17.33	15.23	14.76	14.41	12.51
350.0	795.3	894.3	759.5	853.1	821.1	773.3	746.1	676.3	539.3	456.1	451.4	455.3	461.0	406.1	463.1	520.2	507.1	521.8	463.7	372.0	347.6	319.3	476.5	565.4	313.1	257.4	241.1	297.1	979.8	9999.9	9999.9	9999.9	 5377	377.1	274.1	197.9	137.8	90.99	62.75	42.95	38.17	30.70	23.36	22.89	20.56	17.67	18.14	15.69	14.02	13.16	13.56
355.0	789.6	874.6	674.9	660.1	690.3	731.0	724.2	691.3	657.6	509.0	478.3	487.2	437.3	459.4	486.7	507.1	541.3	543.1	492.8	424.1	389.2	361.3	349.5	546.2	546.3	312.2	260.0	265.0	307.6	986.3	9999.9	9999.9	9999.9	 5774	390.3	269.5	179.3	124.7	86.42	58.25	42.90	36.33	29.25	22.88	24.13	21.62	19.47	15.34	15.49	14.65	14.45
360.0	707.7	821.7	763.4	735.9	835.2	688.0	730.3	721.8	671.6	584.3	566.3	494.3	460.3	519.5	483.8	532.8	541.0	537.1	538.2	454.2	433.9	402.4	398.1	409.9	637.5	517.6	321.7	288.8	282.5	317.3	993.1	9999.9	9999.9	9999.9	 5473	378.1	262.5	175.9	124.6	78.71	57.72	46.55	33.08	30.12	23.63	21.51	17.70	17.79	16.35	14.45	14.60
365.0	681.0	837.7	754.7	759.0	721.4	787.2	817.4	703.3	656.5	618.7	538.1	532.5	536.6	518.0	549.1	569.6	567.0	561.2	548.5	561.8	493.8	471.0	443.7	446.8	469.9	665.1	485.6	337.0	316.9	297.9	326.8	975.0	9999.9	9999.9	9999.9	 6160	367.7	250.0	164.3	108.4	74.68	51.23	40.81	29.29	29.70	23.63	20.30	19.80	14.51	15.91	15.18
370.0	948.0	729.3	769.0	788.7	745.2	741.8	718.9	737.0	685.1	688.5	594.4	546.6	581.7	552.6	570.8	608.0	621.7	631.4	577.4	570.4	544.8	520.9	511.8	483.1	479.6	542.0	692.6	475.8	354.8	317.9	285.7	310.2	963.1	9999.9	9999.9	9999.9	 6023	354.1	239.0	155.5	116.0	77.61	48.78	42.96	32.45	24.53	23.13	21.26	18.39	17.64	14.79
375.0	878.5	692.6	774.5	670.9	747.8	709.1	791.1	800.2	667.2	714.1	630.4	648.3	616.5	607.3	561.1	634.9	643.1	636.4	616.0	567.6	562.0	557.4	559.6	545.0	545.6	543.0	647.9	689.3	439.8	369.2	307.5	283.2	312.6	984.9	9999.9	9999.9	9999.9	 6468	330.2	230.4	144.4	100.9	67.32	53.03	38.57	30.00	27.61	21.44	16.99	17.32	15.23
380.0	806.5	815.6	687.0	701.5	823.2	717.7	774.9	763.9	723.1	718.1	687.7	609.3	620.3	616.8	645.0	685.9	687.0	649.0	670.3	645.8	619.9	624.0	614.0	602.0	589.8	579.8	576.1	685.0	625.5	432.6	354.3	294.8	275.8	308.9	975.2	9999.9	9999.9	9999.9	 5880	302.8	213.1	134.6	90.97	65.85	47.49	37.00	29.97	22.61	20.62	19.60	16.95
385.0	868.3	709.3	761.6	682.8	758.0	806.7	814.1	757.2	783.5	757.9	696.1	672.0	694.5	703.2	636.0	722.9	676.4	653.5	703.4	680.5	641.7	641.6	631.4	659.4	632.5	659.3	606.6	603.1	726.2	599.8	398.6	341.6	301.8	283.0	307.5	958.8	9999.9	9999.9	9999.9	 6100	287.6	201.2	131.2	94.69	66.20	44.21	37.28	27.62	25.01	17.99	17.44
390.0	832.3	739.5	807.8	713.7	744.8	842.0	805.7	791.1	814.4	781.3	745.1	692.7	702.9	696.5	709.9	729.3	753.1	707.9	705.1	683.2	668.1	688.7	687.9	716.0	672.1	678.7	687.9	610.9	630.4	728.7	554.4	413.9	353.7	303.4	265.5	301.1	930.9	9999.9	9999.9	9999.9	 5845	289.1	190.9	120.1	86.10	60.42	42.71	33.00	28.08	20.94	15.76
395.0	816.9	750.9	691.6	665.9	945.1	912.5	840.8	837.6	847.5	831.3	852.1	794.5	757.7	735.7	736.0	784.7	773.9	772.1	752.0	722.5	714.0	708.5	742.7	758.5	735.5	737.1	695.5	690.1	633.5	674.4	689.2	499.1	393.9	343.8	298.3	263.5	289.9	921.7	9999.9	9999.9	9999.9	 5901	261.3	172.3	123.9	81.52	55.58	43.43	35.27	28.46	19.93
400.0	632.9	645.8	701.1	821.4	831.3	778.1	859.1	820.5	871.6	891.9	853.4	821.6	753.1	836.6	797.6	836.9	817.8	757.2	755.7	732.8	753.8	753.7	767.5	760.9	788.5	755.6	769.8	707.2	685.3	639.9	666.1	655.7	465.7	383.6	342.3	291.6	249.4	271.4	907.7	9999.9	9999.9	9999.9	 5150	247.3	163.1	108.5	78.25	57.40	42.01	30.08	24.54
405.0	790.1	680.0	749.7	839.1	774.9	841.7	830.6	834.0	815.2	846.0	881.3	817.9	790.7	825.6	829.1	813.3	815.9	802.1	783.0	735.6	754.3	760.5	767.7	779.6	783.8	781.3	788.3	762.4	715.9	673.2	621.3	697.0	625.7	453.1	386.0	316.2	266.7	229.4	267.0	882.3	9999.9	9999.9	9999.9	 4658	230.0	154.3	103.1	70.28	53.80	39.90	30.47
410.0	672.5	599.3	806.1	692.9	839.2	876.6	878.5	812.9	803.2	854.0	912.9	907.7	844.8	843.5	870.6	796.3	859.6	836.3	788.9	780.1	759.5	770.4	812.5	810.9	810.5	813.8	792.2	783.0	738.3	702.6	685.9	642.3	696.9	594.6	432.4	362.5	303.5	251.3	207.4	232.7	847.3	9999.9	9999.9	9999.9	 4339	211.0	143.3	96.21	65.00	51.60	38.21
415.0	524.1	587.1	749.1	738.1	902.7	846.4	866.6	801.9	864.1	863.7	821.4	862.6	892.0	881.0	855.5	885.7	834.0	807.4	804.9	807.4	769.9	770.1	784.9	799.6	824.6	831.0	822.1	823.2	783.1	737.5	687.9	651.9	647.3	695.9	544.2	399.9	343.7	267.9	238.7	199.3	217.8	843.5	9999.9	9999.9	9999.9	 4348	206.5	127.3	84.04	67.49	47.04
420.0	543.9	556.6	725.4	742.3	907.0	767.2	894.5	807.9	913.0	926.6	847.3	870.1	890.7	891.3	876.2	931.7	856.4	820.1	786.9	801.4	764.1	765.8	784.2	800.0	820.6	845.3	824.0	833.6	791.8	745.5	714.8	658.5	615.8	660.7	633.1	468.1	365.5	296.5	238.2	200.2	172.5	204.0	820.1	9999.9	9999.9	9999.9	 3867	184.1	123.2	85.14	60.66
425.0	669.2	589.9	683.8	715.4	760.5	916.7	789.4	801.4	871.7	861.7	850.3	881.3	814.3	890.6	880.6	919.5	844.1	795.9	799.0	762.0	769.6	758.6	794.1	794.4	803.0	813.4	836.9	808.8	774.9	745.8	716.6	663.6	642.2	594.5	639.5	574.6	403.5	327.4	269.0	217.1	183.4	151.1	191.6	806.5	9999.9	9999.9	9999.9	 3356	167.1	113.3	80.40
430.0	611.5	592.0	706.8	751.9	734.6	832.0	829.6	855.2	820.2	840.1	832.8	897.3	832.9	830.9	908.2	928.0	819.7	787.5	795.4	787.2	742.0	763.1	771.0	793.8	789.0	799.1	793.2	795.8	786.3	757.9	719.3	670.4	641.5	616.2	588.8	607.4	486.5	350.9	285.8	229.5	187.2	161.1	141.4	178.7	792.5	9999.9	9999.9	9999.9	 3025	160.3	108.4
435.0	450.6	513.5	627.0	645.5	754.7	885.3	805.5	784.8	804.2	796.6	905.5	820.8	832.0	918.0	927.3	923.6	866.0	823.1	747.5	762.8	723.4	752.8	758.1	755.1	792.4	756.1	776.8	789.1	777.3	759.4	697.4	680.0	654.5	614.5	563.9	557.0	539.8	407.6	305.5	260.4	207.3	179.6	143.9	127.8	168.7	791.9	9999.9	9999.9	9999.9	 2991	153.4
440.0	561.5	521.3	558.0	559.1	742.5	906.1	814.8	787.6	739.7	815.8	831.8	831.0	886.3	875.0	866.1	872.0	881.1	776.8	741.6	732.7	712.8	739.5	701.1	732.1	739.0	736.0	749.1	753.9	749.8	741.8	687.6	671.2	645.5	621.0	575.2	523.7	500.2	475.7	350.7	263.8	221.2	181.8	159.9	128.7	125.0	165.2	781.5	9999.9	9999.9	9999.9	 2643
445.0	516.1	505.1	554.9	591.5	671.1	772.3	769.3	783.8	744.0	809.7	866.7	848.7	841.6	870.6	884.9	845.9	830.4	835.1	748.3	719.8	703.2	670.3	698.9	705.9	715.8	737.0	745.9	744.1	710.6	695.9	670.9	644.3	639.6	612.7	565.0	521.5	468.0	460.1	413.2	292.2	231.0	191.9	168.4	138.1	123.1	107.9	153.2	780.6	9999.9	9999.9	9999.9
450.0	534.5	582.0	517.4	721.0	552.0	716.9	691.6	704.6	719.5	759.3	811.7	818.4	827.9	851.3	854.8	871.9	800.4	777.1	714.9	708.2	655.9	648.4	671.1	695.1	681.1	689.7	688.5	703.5	692.6	686.2	661.7	631.5	624.9	602.4	579.5	523.1	451.2	417.1	428.7	340.0	247.4	209.9	171.0	156.9	128.6	113.5	101.1	153.7	771.2	9999.9	9999.9
455.0	487.2	526.3	484.5	511.1	572.5	724.5	607.3	720.1	771.9	717.5	772.4	753.0	734.2	762.1	832.2	839.9	805.5	773.3	691.3	664.4	614.9	635.0	636.5	637.4	645.5	639.0	636.2	658.3	626.9	640.9	636.1	619.0	590.0	597.6	551.7	509.6	460.8	390.6	376.4	367.0	290.8	214.6	176.3	156.8	137.2	125.9	100.4	94.85	145.5	774.8	9999.9
460.0	448.9	482.6	573.3	612.9	539.9	640.4	697.9	611.6	675.2	722.1	747.1	747.4	792.6	814.7	847.9	821.5	790.8	704.6	682.0	589.5	609.0	564.2	579.1	594.8	593.6	611.4	598.8	613.8	595.3	601.7	614.9	578.0	589.9	568.7	533.3	489.8	442.0	385.3	332.3	344.3	316.4	241.3	187.1	162.6	146.5	125.1	108.8	93.30	87.66	138.6	759.0
465.0	541.3	509.1	540.0	542.1	648.6	527.4	631.7	686.5	669.8	688.2	663.4	681.2	695.5	748.1	743.2	743.9	712.2	703.9	622.9	590.0	573.7	548.9	553.4	557.9	577.2	586.4	568.0	578.0	582.4	581.5	576.9	559.5	542.2	533.8	516.7	477.5	421.1	376.0	351.6	302.5	307.7	279.4	209.8	173.7	143.2	128.7	111.5	106.1	92.75	87.86	138.8
470.0	451.1	415.7	543.0	510.4	660.2	539.4	507.4	601.2	593.6	641.5	655.2	671.4	663.1	730.5	669.7	711.3	659.3	667.8	625.7	572.7	539.3	527.6	523.7	523.9	550.6	532.5	528.6	536.5	532.4	542.5	524.9	519.2	508.8	499.1	478.0	463.3	405.9	368.2	327.6	291.3	260.7	277.3	227.3	184.9	152.2	138.1	119.4	100.1	95.76	94.86	83.63
475.0	361.6	538.9	418.5	465.7	525.0	555.1	494.1	547.9	567.5	505.4	592.4	616.7	622.0	652.9	654.6	660.2	629.9	617.8	559.6	553.3	490.6	475.9	499.9	509.4	505.5	480.0	479.3	499.0	495.3	497.8	484.0	458.7	468.5	470.9	451.2	418.5	377.1	343.4	307.3	279.2	256.4	243.4	244.1	196.9	153.7	141.9	123.8	99.00	91.28	74.33	72.41
480.0	232.8	417.6	314.4	445.5	458.1	392.1	467.0	504.3	483.9	532.5	542.8	581.5	594.0	612.9	612.7	622.6	586.8	570.2	545.4	522.7	485.7	469.2	478.0	447.9	450.8	472.5	440.7	456.9	459.7	466.0	450.5	438.3	435.1	436.5	414.7	395.3	360.4	327.1	301.5	273.3	242.8	222.4	218.4	214.5	161.2	134.4	115.6	100.9	93.58	82.04	74.03
485.0	281.6	288.0	444.1	428.8	413.8	411.7	471.4	443.4	496.1	545.4	522.8	490.5	570.6	607.5	621.1	615.9	600.1	541.9	524.3	478.1	450.0	428.3	433.5	429.6	427.6	422.8	427.1	436.8	413.4	428.4	411.2	428.3	408.8	412.8	395.7	385.6	351.6	308.3	297.3	257.4	240.3	214.2	195.0	205.8	181.8	148.2	118.1	107.7	97.17	93.67	80.99
490.0	364.1	399.3	368.2	350.4	340.7	395.3	464.4	465.2	469.4	509.5	511.8	500.7	560.1	574.5	529.3	549.9	525.4	500.1	473.5	457.6	425.4	418.8	418.2	409.6	391.7	398.7	397.4	407.1	389.6	386.3	390.2	376.4	386.1	380.1	373.5	366.9	326.6	305.7	280.9	242.1	235.1	213.7	185.9	175.7	183.2	160.6	126.8	107.1	101.2	88.28	81.41
495.0	250.5	285.7	324.6	325.0	285.5	351.1	420.3	414.5	456.3	410.6	470.0	488.3	521.1	544.8	547.4	554.7	513.4	502.5	449.0	407.2	403.2	397.7	385.6	375.5	380.2	359.4	360.5	359.7	359.6	367.6	352.7	372.4	369.4	361.6	348.7	338.6	333.0	282.1	270.7	246.4	215.6	205.8	178.9	172.3	172.7	168.7	138.2	116.9	101.1	86.94	77.49
500.0	160.1	308.3	334.4	289.2	374.9	344.2	354.2	393.1	386.2	401.7	460.8	508.4	473.6	444.0	492.5	537.9	494.6	434.6	402.7	378.1	386.6	368.8	367.0	351.1	344.6	340.2	339.3	339.6	338.2	319.7	360.3	338.1	339.6	332.8	331.4	305.9	282.6	282.3	252.6	221.8	213.4	189.9	170.8	158.2	155.5	155.8	149.1	124.0	110.3	90.33	83.23
505.0	236.9	254.6	262.5	239.4	381.5	361.3	339.8	360.6	395.0	343.5	427.4	431.6	443.1	448.9	501.3	454.1	442.9	420.1	410.1	351.0	340.0	330.4	322.6	311.7	315.5	304.1	308.6	328.1	319.4	316.0	309.0	316.6	307.4	300.3	294.4	283.0	276.1	254.1	238.7	219.1	202.8	180.8	169.2	152.0	140.0	140.4	147.7	136.5	106.0	82.58	78.49
510.0	226.2	221.9	216.4	241.4	227.7	336.9	336.8	357.1	299.9	365.0	393.3	401.7	404.6	433.6	441.0	421.3	401.3	393.9	357.0	326.3	321.0	303.0	328.7	294.5	291.6	282.0	291.4	278.1	293.9	280.1	282.7	279.3	274.3	287.7	276.6	265.0	248.3	228.5	211.1	200.7	194.1	169.9	159.9	141.8	139.3	121.5	118.8	135.0	114.3	95.95	79.59
515.0	202.7	191.5	265.2	200.8	228.2	339.3	282.4	299.5	283.1	327.7	349.9	341.7	377.8	388.3	391.1	411.3	389.5	367.1	327.8	339.6	286.8	275.1	282.4	271.0	248.0	259.9	280.2	263.2	251.9	254.4	256.9	262.3	240.9	263.9	253.4	247.5	231.5	211.6	192.7	187.3	174.1	168.0	153.1	143.3	122.7	121.6	113.1	108.4	115.2	89.81	82.07
520.0	192.2	275.0	210.2	246.7	182.3	294.2	294.1	307.7	299.2	275.5	322.4	295.4	327.4	370.5	346.8	380.8	366.7	318.4	302.1	285.1	266.6	260.6	255.8	233.5	263.5	231.2	221.6	216.3	239.9	237.3	228.9	243.4	234.7	222.3	232.5	224.7	210.9	194.5	190.4	171.8	152.7	150.2	146.9	130.7	119.8	112.2	106.8	95.28	104.6	99.46	81.69
525.0	234.8	196.4	253.4	245.5	235.4	259.6	230.9	278.4	261.9	259.7	285.8	270.8	326.5	295.8	304.6	373.8	323.6	301.8	287.5	258.4	243.0	239.7	227.7	212.5	231.2	211.0	216.4	213.0	219.2	218.3	210.8	207.3	209.6	220.2	211.9	198.8	193.8	163.6	169.2	149.1	155.5	132.7	137.6	110.4	100.3	100.2	88.91	91.54	88.19	102.7	83.53
530.0	201.4	201.8	217.3	250.0	178.2	225.3	194.9	259.3	238.2	208.8	251.0	225.2	252.3	291.5	315.9	318.5	311.3	277.9	251.4	247.2	229.0	229.1	202.2	199.2	198.1	207.4	187.5	192.8	188.3	187.9	187.8	198.0	185.2	197.9	182.3	172.4	162.6	163.4	148.4	139.8	134.8	117.2	113.7	110.1	97.86	94.80	91.26	81.49	82.99	83.88	81.83
535.0	155.1	174.9	128.7	169.0	165.2	167.8	206.3	202.9	192.9	223.6	241.0	233.8	255.5	275.5	322.9	263.7	268.1	260.4	236.2	232.6	196.9	200.8	188.3	182.4	181.3	170.5	167.2	170.9	184.2	170.2	165.4	169.6	171.2	158.7	168.3	161.4	147.2	143.8	132.8	127.5	122.2	104.0	102.6	103.0	92.15	88.47	81.13	79.16	71.27	75.18	76.06
540.0	141.3	131.2	157.6	116.9	170.9	174.7	172.0	186.0	224.9	205.7	199.1	213.2	196.9	232.1	373.5	311.1	238.7	236.0	229.3	220.4	189.9	182.4	172.7	167.4	168.5	161.2	154.3	153.3	152.8	141.2	155.8	147.3	164.5	143.4	140.4	139.7	140.1	131.4	131.3	118.3	104.2	95.05	87.53	88.29	83.55	83.22	75.44	75.37	70.52	65.11	58.19
545.0	141.8	127.6	93.36	170.1	153.8	124.4	182.4	152.8	170.1	181.2	178.0	205.4	181.1	220.9	419.7	597.3	254.7	219.6	196.1	197.0	172.9	158.6	152.6	156.9	147.6	146.5	143.6	141.6	139.1	134.8	144.5	131.2	142.6	135.6	133.2	134.0	120.7	118.2	111.0	104.7	95.04	92.12	84.11	85.84	82.32	76.01	68.63	66.81	62.36	61.60	53.93
550.0	128.5	126.6	107.1	123.5	114.3	173.4	152.9	163.8	171.1	161.8	182.2	187.7	180.3	200.5	268.2	 1238	512.4	189.8	202.5	177.0	159.2	152.5	145.2	152.0	133.4	132.1	131.5	128.7	126.9	134.8	124.0	125.2	127.2	124.3	121.8	119.6	117.3	106.7	95.39	98.25	84.10	80.51	76.79	71.94	73.64	66.73	65.47	62.62	59.93	54.83	51.96
