Sample:	'SLABO1-5-5-320
File name:	2N3.FD3
Run Date:	15:32:52, 08/17/2022
Operator:	Administrator
Comment:	'

Instrument
Model:	F-7000 FL Spectrophotometer
Serial Number:	2354-007
ROM Version:	5J14000 06

Instrument Parameters
Measurement type:	3-D Scan
Data mode:	Fluorescence
EX  Start WL:	200.0 nm
EX  End WL:	450.0 nm
EX Sampling Interval:	5.0 nm
EM  Start WL:	280.0 nm
EM  End WL:	550.0 nm
EM Sampling Interval:	5.0 nm
Scan speed:	12000 nm/min
EX Slit:	5.0 nm
EM Slit:	5.0 nm
PMT Voltage:	700 V
Response:	Auto 
Corrected spectra:	Off
Shutter control:	On
Contour interval:	25.000

Peak integration
Integration method:	Rectangular
Sensitivity:	1
Threshold:	1.000

Peaks
No.	ApexEX/EM(nm)	Height(Data)
1	205.0/315.0	734.0
2	210.0/520.0	408.4
3	215.0/300.0	568.9
4	220.0/310.0	612.5
5	225.0/315.0	771.6
6	225.0/355.0	967.0
7	225.0/515.0	687.6
8	230.0/345.0	905.5
9	230.0/435.0	 1848
10	235.0/490.0	 1113
11	240.0/420.0	 2008
12	250.0/290.0	613.8
13	250.0/320.0	379.5
14	250.0/410.0	 2209
15	270.0/420.0	 2539
16	275.0/305.0	684.2
17	275.0/435.0	 2636
18	280.0/310.0	821.0
19	285.0/315.0	835.2
20	290.0/320.0	784.7
21	295.0/330.0	724.9
22	300.0/335.0	699.3
23	305.0/340.0	689.8
24	310.0/345.0	723.1
25	310.0/430.0	 2030
26	315.0/410.0	 2071
27	315.0/420.0	 2056
28	315.0/435.0	 2045
29	320.0/425.0	 2087
30	330.0/420.0	 2093
31	340.0/430.0	 2042
32	365.0/290.0	13.20
33	390.0/320.0	14.19
34	395.0/325.0	13.79
35	400.0/290.0	7.734
36	405.0/320.0	12.92
37	410.0/325.0	12.32
38	420.0/310.0	8.331
39	425.0/345.0	10.67
40	440.0/320.0	7.232
41	445.0/365.0	10.12

Data Points
	200.0	205.0	210.0	215.0	220.0	225.0	230.0	235.0	240.0	245.0	250.0	255.0	260.0	265.0	270.0	275.0	280.0	285.0	290.0	295.0	300.0	305.0	310.0	315.0	320.0	325.0	330.0	335.0	340.0	345.0	350.0	355.0	360.0	365.0	370.0	375.0	380.0	385.0	390.0	395.0	400.0	405.0	410.0	415.0	420.0	425.0	430.0	435.0	440.0	445.0	450.0
280.0	37.63	73.03	34.53	41.53	53.57	24.74	37.08	27.29	54.11	138.9	173.1	203.1	100.1	39.77	23.16	 2795	9999.9	 5306	121.2	24.64	25.81	25.89	20.78	14.20	13.90	15.68	13.54	9.884	14.10	10.49	9.283	8.781	9.397	9.120	8.238	7.383	7.442	8.154	5.832	5.961	4.391	3.805	3.937	3.830	3.433	3.324	2.393	1.672	2.291	2.582	2.596
285.0	188.8	175.5	140.4	142.9	172.9	195.3	101.5	74.42	140.3	305.1	457.3	434.4	327.0	162.9	69.22	240.5	 6486	9999.9	9999.9	879.9	45.49	40.87	31.96	29.17	21.68	19.62	15.58	16.89	13.71	12.98	10.40	11.36	11.12	10.98	10.80	10.20	7.922	8.270	6.371	5.766	5.700	4.560	4.023	3.533	2.967	3.152	2.989	2.979	2.765	3.340	2.537
290.0	503.4	310.3	292.7	302.5	327.8	318.4	261.9	173.9	232.6	405.4	613.8	532.5	421.3	356.7	188.8	143.1	502.7	9999.9	9999.9	9999.9	 1203	63.50	47.72	37.80	31.75	25.80	20.38	15.92	15.86	11.48	13.42	11.72	9.117	13.20	10.11	9.279	10.69	6.667	6.403	5.924	7.734	6.025	5.232	3.741	4.528	4.070	3.210	3.206	3.656	4.173	3.576
295.0	525.7	473.5	387.0	440.4	444.4	473.5	345.7	208.5	221.1	462.2	604.1	538.5	364.8	334.8	422.4	236.4	226.9	789.5	9999.9	9999.9	9999.9	 1572	77.13	60.47	50.91	36.13	24.50	23.97	19.43	16.52	16.77	12.67	14.34	11.43	11.55	12.26	10.34	8.273	7.173	6.626	6.152	6.472	7.726	4.479	4.368	4.055	4.551	4.003	4.926	3.835	4.566
300.0	672.2	605.6	515.0	568.9	495.7	570.4	409.4	300.4	243.4	412.9	509.4	492.2	369.7	284.1	494.6	533.5	297.6	242.0	805.8	9999.9	9999.9	9999.9	 1623	89.94	68.42	54.49	43.01	31.64	24.17	21.67	19.10	15.87	15.51	15.26	14.74	12.47	11.05	9.491	9.504	6.965	7.933	7.949	7.139	4.947	5.476	6.524	5.010	5.914	5.247	5.269	4.430
305.0	740.9	637.7	470.1	481.0	608.7	598.3	450.2	340.4	298.6	364.0	435.6	435.9	352.2	306.4	381.1	684.2	548.1	292.0	226.1	793.8	9999.9	9999.9	9999.9	 1850	95.75	78.26	58.12	49.12	33.59	24.96	22.82	18.90	19.37	18.10	13.09	13.89	10.46	11.17	9.839	9.425	8.832	8.294	7.919	6.431	5.694	6.823	4.874	5.709	5.625	6.347	5.543
310.0	822.5	731.3	556.3	480.9	612.5	601.3	488.4	356.0	288.1	347.4	363.9	376.1	359.7	340.1	400.5	474.4	821.0	513.1	252.9	220.4	804.6	9999.9	9999.9	9999.9	 1935	111.5	90.48	66.54	45.78	37.48	28.21	25.65	24.99	16.42	17.92	14.55	15.46	11.76	10.41	9.574	9.021	9.072	8.130	7.277	8.331	6.218	5.604	6.043	6.717	5.927	4.585
315.0	637.5	734.0	618.2	624.2	543.5	771.6	540.2	370.0	318.6	332.0	318.3	390.0	317.6	368.7	430.2	478.6	566.6	835.2	403.8	206.5	199.7	810.7	9999.9	9999.9	9999.9	 1762	122.3	92.67	73.34	51.93	35.80	27.82	29.20	20.15	17.58	18.64	16.07	12.74	13.24	10.93	9.975	10.24	7.078	7.797	7.860	6.702	5.853	5.951	7.125	5.212	5.463
320.0	651.6	671.0	558.5	628.4	616.2	669.2	622.5	469.7	337.5	350.2	379.5	336.5	355.6	385.8	472.2	518.9	561.1	662.2	784.7	316.0	183.9	203.4	840.0	9999.9	9999.9	9999.9	 1743	140.6	98.22	79.35	58.06	37.48	32.93	26.94	21.35	17.59	12.85	12.96	14.19	11.96	11.21	12.92	9.772	7.291	6.421	7.228	6.694	5.906	7.232	6.342	5.670
325.0	630.4	640.2	609.4	597.6	665.4	741.8	723.6	471.4	383.0	374.0	356.7	377.5	372.4	443.3	510.8	609.3	612.3	576.0	705.4	682.6	285.4	193.7	219.1	848.0	9999.9	9999.9	9999.9	 1895	143.6	105.8	80.76	61.07	43.17	28.55	25.14	23.32	19.89	13.82	11.43	13.79	10.24	11.01	12.32	9.572	7.188	7.570	7.120	7.010	5.718	6.293	6.545
330.0	508.3	549.1	578.3	624.5	795.5	851.9	759.1	588.6	464.1	373.5	383.5	379.2	408.7	446.0	538.3	637.9	680.7	630.1	557.0	724.9	575.3	262.1	200.3	225.4	824.4	9999.9	9999.9	9999.9	 1934	153.5	111.6	84.76	67.71	42.34	35.11	27.74	20.54	18.10	12.99	11.78	12.76	10.33	9.844	8.363	8.655	8.135	8.411	6.061	6.472	8.179	7.135
335.0	495.9	450.6	598.4	723.1	742.7	855.8	889.5	646.9	521.3	428.0	421.7	413.5	489.4	494.0	577.1	666.4	703.1	703.7	637.2	549.1	699.3	490.6	231.9	211.3	220.2	851.4	9999.9	9999.9	9999.9	 1995	166.6	112.4	86.48	66.72	46.76	31.53	25.11	22.54	17.08	14.35	11.98	12.82	10.69	9.535	8.922	8.803	9.025	6.607	7.077	7.637	7.439
340.0	569.0	523.3	594.8	581.8	733.6	859.1	891.4	727.3	591.3	468.6	455.0	463.3	503.8	549.3	617.9	712.6	743.6	726.8	688.7	536.2	507.9	689.8	422.0	282.6	240.1	233.1	880.2	9999.9	9999.9	9999.9	 2252	163.2	119.4	89.86	70.56	44.83	32.65	27.73	18.37	15.65	14.32	11.24	11.52	9.603	9.060	8.705	8.462	6.965	8.164	7.789	6.693
345.0	515.4	551.7	528.7	586.9	843.7	818.7	905.5	761.6	619.1	517.5	502.2	480.2	568.8	619.3	613.5	710.4	819.8	821.4	744.1	631.9	498.8	544.4	723.1	447.0	301.6	293.7	299.6	886.4	9999.9	9999.9	9999.9	 2546	176.7	124.8	87.42	65.08	42.29	29.80	23.16	16.74	16.19	13.50	12.06	10.78	9.507	10.67	8.763	9.105	8.744	8.645	7.673
350.0	531.1	496.3	465.3	494.9	785.5	898.1	905.0	817.6	709.1	650.1	578.2	618.0	628.7	670.1	721.2	800.2	852.3	902.5	788.9	713.1	607.1	554.2	674.8	749.3	450.5	387.4	340.4	331.7	923.7	9999.9	9999.9	9999.9	 2588	191.6	125.2	91.72	62.17	42.62	29.01	22.04	16.35	13.38	13.53	11.82	10.40	8.744	9.276	7.866	7.972	8.487	7.634
355.0	503.5	573.2	534.5	638.5	705.8	967.0	870.3	832.6	812.9	752.1	674.0	717.6	710.6	762.6	829.6	948.3	940.3	969.3	883.8	793.2	736.5	688.2	652.5	788.1	802.1	556.0	454.2	422.8	392.7	938.6	9999.9	9999.9	9999.9	 2765	175.4	119.4	87.80	63.66	37.96	27.48	19.04	18.73	14.05	14.53	11.08	8.220	8.706	8.353	9.056	7.671	6.512
360.0	461.0	579.8	633.2	663.4	745.7	835.0	850.6	943.9	893.9	814.8	820.1	788.8	859.7	866.2	968.4	 1053	 1029	 1051	988.1	894.0	872.2	801.3	787.5	790.4	966.5	838.0	622.7	562.5	452.1	413.8	952.2	9999.9	9999.9	9999.9	 2574	173.8	115.5	81.08	61.34	36.82	23.75	21.66	18.36	12.37	11.35	11.23	11.50	9.572	9.256	6.683	9.329
365.0	447.0	526.4	556.6	690.8	767.6	967.9	 1027	 1012	974.2	999.2	892.6	905.8	 1024	 1060	 1129	 1195	 1186	 1109	 1098	 1010	977.2	937.0	908.6	926.1	975.6	 1115	889.2	728.8	599.1	485.6	439.3	953.1	9999.9	9999.9	9999.9	 2884	161.6	106.1	80.77	54.05	39.43	27.22	20.36	14.87	13.47	12.80	10.79	8.875	9.297	10.12	7.944
370.0	443.7	600.9	512.5	835.1	889.7	 1005	 1000	 1099	 1097	 1117	 1080	 1068	 1153	 1171	 1242	 1325	 1290	 1217	 1225	 1142	 1088	 1085	 1097	 1092	 1107	 1126	 1235	955.5	764.5	650.9	501.0	437.9	957.9	9999.9	9999.9	9999.9	 2802	165.8	105.9	71.50	48.69	34.97	26.63	19.19	16.21	12.82	11.82	9.872	10.42	8.599	10.31
375.0	646.0	650.4	704.9	813.4	988.8	 1065	 1107	 1301	 1240	 1186	 1277	 1181	 1258	 1352	 1450	 1420	 1451	 1343	 1308	 1233	 1228	 1213	 1260	 1231	 1250	 1224	 1292	 1267	967.1	791.6	648.1	499.4	424.7	952.6	9999.9	9999.9	9999.9	 2997	158.1	106.8	68.42	48.70	32.76	22.01	17.46	16.37	11.96	9.990	9.619	10.85	10.49
380.0	491.5	646.8	804.4	821.6	925.5	 1066	 1228	 1310	 1315	 1427	 1372	 1379	 1515	 1477	 1570	 1531	 1584	 1519	 1422	 1425	 1371	 1364	 1368	 1432	 1410	 1377	 1341	 1365	 1276	987.7	816.7	661.7	496.7	423.2	950.8	9999.9	9999.9	9999.9	 2691	137.9	88.41	65.06	45.66	32.85	22.15	17.43	16.13	13.07	11.51	11.11	10.32
385.0	492.3	703.6	759.6	842.9	959.3	 1188	 1341	 1464	 1443	 1477	 1469	 1464	 1636	 1656	 1712	 1718	 1738	 1671	 1588	 1517	 1461	 1514	 1507	 1553	 1547	 1519	 1471	 1424	 1481	 1282	972.8	816.4	647.7	507.1	425.7	940.6	9999.9	9999.9	9999.9	 2768	135.3	88.38	60.88	46.23	30.93	20.05	16.15	14.33	13.43	11.03	11.93
390.0	503.4	664.7	752.8	868.6	 1107	 1261	 1500	 1547	 1553	 1589	 1611	 1647	 1704	 1763	 1943	 1878	 1801	 1791	 1728	 1591	 1656	 1614	 1635	 1642	 1678	 1670	 1630	 1585	 1515	 1506	 1219	974.4	805.0	618.1	497.9	421.3	928.9	9999.9	9999.9	9999.9	 2561	120.4	83.16	61.46	38.34	28.67	18.95	17.42	13.93	12.00	11.25
395.0	670.0	642.2	739.2	 1054	 1154	 1329	 1444	 1591	 1591	 1611	 1788	 1814	 1832	 1921	 1996	 2022	 2064	 1969	 1848	 1754	 1708	 1699	 1758	 1813	 1833	 1746	 1753	 1729	 1593	 1545	 1498	 1150	992.2	811.0	627.8	492.2	408.8	915.5	9999.9	9999.9	9999.9	 2605	120.6	79.58	52.32	39.73	27.79	19.70	15.48	16.73	13.44
400.0	508.3	557.9	778.2	 1032	 1255	 1466	 1601	 1671	 1777	 1751	 1822	 1915	 1890	 2105	 2114	 2147	 2169	 2033	 1906	 1834	 1834	 1820	 1886	 1892	 1905	 1884	 1902	 1827	 1754	 1605	 1578	 1459	 1158	962.2	799.1	616.7	460.3	388.5	894.8	9999.9	9999.9	9999.9	 2326	108.9	73.42	50.03	39.21	30.60	20.34	16.75	12.64
405.0	588.5	692.5	825.3	928.2	 1181	 1426	 1609	 1752	 1825	 1923	 1969	 1993	 2119	 2188	 2233	 2235	 2245	 2171	 2010	 1933	 1930	 1891	 1926	 1989	 1973	 1990	 1938	 1915	 1875	 1736	 1629	 1581	 1404	 1134	935.1	762.9	571.4	438.0	373.7	879.3	9999.9	9999.9	9999.9	 2073	104.3	68.50	50.73	31.21	25.69	19.15	16.28
410.0	593.4	686.3	887.6	 1066	 1324	 1414	 1726	 1738	 1833	 1964	 2209	 2070	 2197	 2323	 2279	 2370	 2351	 2224	 2131	 2014	 1923	 1923	 1992	 2071	 2026	 2082	 2050	 1989	 1943	 1797	 1707	 1611	 1554	 1369	 1098	873.3	697.9	534.4	400.2	344.5	866.9	9999.9	9999.9	9999.9	 1930	94.52	62.28	46.93	33.17	22.93	18.19
415.0	638.9	787.4	 1027	 1187	 1246	 1428	 1729	 1878	 1910	 1984	 2051	 2230	 2345	 2328	 2433	 2480	 2426	 2289	 2221	 2024	 1995	 1968	 2014	 2047	 2051	 2086	 2064	 2037	 1986	 1887	 1786	 1669	 1589	 1573	 1264	 1034	820.2	650.5	489.2	375.6	320.4	849.9	9999.9	9999.9	9999.9	 1929	87.84	61.14	44.32	32.76	23.39
420.0	576.2	730.0	880.2	 1153	 1417	 1642	 1645	 1865	 2008	 1892	 2169	 2235	 2377	 2409	 2539	 2527	 2470	 2330	 2203	 2045	 1992	 1941	 2048	 2056	 2047	 2089	 2093	 2070	 1984	 1928	 1840	 1737	 1631	 1609	 1470	 1175	916.3	736.9	580.9	447.9	345.1	304.5	844.2	9999.9	9999.9	9999.9	 1687	87.69	56.67	42.02	32.32
425.0	575.1	626.1	822.9	 1056	 1485	 1552	 1816	 1727	 1849	 2004	 2158	 2159	 2282	 2406	 2505	 2576	 2472	 2305	 2221	 2053	 1992	 2000	 2001	 2056	 2087	 2078	 2053	 2069	 2032	 1979	 1889	 1827	 1698	 1575	 1520	 1336	 1052	839.1	686.3	531.8	418.2	322.7	290.1	832.4	9999.9	9999.9	9999.9	 1454	80.43	52.91	40.35
430.0	629.1	712.3	830.0	 1086	 1328	 1492	 1842	 1785	 1895	 1997	 2209	 2270	 2319	 2491	 2553	 2573	 2407	 2387	 2203	 2048	 1991	 1973	 2030	 1982	 2059	 2034	 2018	 2019	 2042	 1965	 1922	 1820	 1727	 1633	 1521	 1433	 1183	944.6	753.9	606.7	480.9	388.8	301.8	284.0	819.8	9999.9	9999.9	9999.9	 1307	74.45	48.94
435.0	599.8	658.4	874.1	 1062	 1354	 1541	 1848	 1682	 1789	 2091	 2248	 2228	 2317	 2415	 2571	 2636	 2461	 2407	 2185	 2064	 1977	 1978	 1973	 2045	 1995	 2028	 1984	 2003	 2039	 1954	 1896	 1833	 1753	 1687	 1564	 1428	 1310	 1054	855.1	696.6	555.2	450.3	367.5	279.0	268.3	813.6	9999.9	9999.9	9999.9	 1277	74.32
440.0	526.5	678.0	827.6	973.5	 1369	 1541	 1697	 1692	 1915	 2000	 2177	 2215	 2371	 2600	 2611	 2621	 2525	 2310	 2175	 2043	 1949	 1929	 1913	 1977	 1915	 1979	 1974	 1990	 1964	 1913	 1908	 1830	 1773	 1707	 1608	 1419	 1304	 1190	905.9	760.1	622.2	523.9	417.4	343.9	271.9	256.6	807.4	9999.9	9999.9	9999.9	 1136
445.0	498.0	768.9	788.7	896.7	 1162	 1367	 1562	 1643	 1754	 1976	 2162	 2210	 2297	 2482	 2519	 2564	 2491	 2329	 2171	 2021	 1939	 1836	 1899	 1915	 1948	 1907	 1902	 1921	 1894	 1911	 1815	 1807	 1735	 1702	 1616	 1446	 1296	 1162	 1027	828.2	682.3	583.9	469.0	391.8	317.4	263.2	256.6	803.9	9999.9	9999.9	9999.9
450.0	471.9	705.7	766.9	906.9	 1270	 1444	 1476	 1630	 1745	 2006	 1987	 2184	 2228	 2410	 2457	 2455	 2457	 2338	 2130	 2001	 1867	 1812	 1809	 1816	 1847	 1858	 1845	 1809	 1846	 1804	 1769	 1765	 1699	 1664	 1598	 1456	 1300	 1132	 1085	902.2	750.5	631.1	519.0	444.4	354.4	293.0	248.8	250.9	790.9	9999.9	9999.9
455.0	489.1	624.6	678.9	 1044	 1107	 1338	 1420	 1535	 1659	 1938	 1920	 2128	 2167	 2433	 2384	 2462	 2421	 2242	 2075	 1934	 1786	 1747	 1730	 1748	 1716	 1710	 1738	 1748	 1751	 1746	 1720	 1724	 1636	 1632	 1556	 1452	 1304	 1151	 1038	958.9	789.3	659.7	578.7	481.4	413.8	347.7	274.3	229.6	237.9	786.9	9999.9
460.0	512.0	598.8	721.6	929.7	 1209	 1223	 1408	 1487	 1677	 1914	 1820	 1941	 2130	 2268	 2318	 2419	 2337	 2161	 1980	 1850	 1719	 1688	 1649	 1666	 1662	 1663	 1673	 1646	 1658	 1650	 1607	 1612	 1597	 1551	 1523	 1393	 1294	 1145	 1005	941.9	835.0	708.3	600.7	514.1	440.8	377.0	322.3	265.6	218.5	222.2	775.5
465.0	535.8	512.2	870.2	828.5	 1080	 1242	 1367	 1476	 1577	 1716	 1780	 1937	 2048	 2140	 2241	 2321	 2254	 2102	 1920	 1823	 1667	 1603	 1602	 1585	 1572	 1528	 1558	 1545	 1572	 1548	 1533	 1559	 1517	 1473	 1453	 1345	 1254	 1117	988.5	896.7	833.7	740.9	630.7	537.9	480.8	411.3	363.2	300.9	253.4	209.9	211.4
470.0	443.4	574.5	644.3	838.0	 1003	 1180	 1291	 1416	 1450	 1597	 1655	 1801	 1894	 2074	 2151	 2174	 2115	 2029	 1841	 1690	 1615	 1500	 1506	 1475	 1439	 1431	 1447	 1460	 1450	 1428	 1401	 1450	 1391	 1404	 1359	 1282	 1197	 1094	985.7	875.6	803.1	745.5	676.8	563.8	498.4	444.9	386.0	327.0	272.9	232.0	186.7
475.0	310.8	546.2	558.1	763.5	967.6	 1071	 1240	 1298	 1325	 1404	 1637	 1751	 1834	 1951	 2032	 2060	 2017	 1883	 1724	 1560	 1463	 1456	 1389	 1363	 1342	 1338	 1313	 1326	 1324	 1332	 1316	 1323	 1319	 1315	 1299	 1231	 1148	 1033	929.8	863.0	778.8	706.8	663.7	586.5	500.7	451.4	396.0	344.4	301.0	257.8	212.1
480.0	312.1	533.1	634.7	667.4	804.8	944.0	 1113	 1049	 1318	 1297	 1504	 1690	 1679	 1799	 1931	 1968	 1936	 1788	 1652	 1530	 1412	 1376	 1356	 1308	 1280	 1262	 1259	 1233	 1221	 1224	 1232	 1226	 1235	 1245	 1213	 1154	 1091	 1008	922.5	829.4	745.1	685.9	648.9	605.5	521.6	459.8	405.3	375.6	320.1	287.3	237.5
485.0	341.4	353.4	473.0	629.7	758.6	860.5	 1013	 1092	 1233	 1278	 1375	 1496	 1634	 1794	 1839	 1887	 1822	 1701	 1639	 1449	 1367	 1305	 1253	 1232	 1213	 1178	 1183	 1161	 1151	 1179	 1167	 1163	 1167	 1189	 1152	 1108	 1037	943.8	867.9	819.1	743.8	678.2	626.2	606.2	557.0	483.0	435.0	389.3	344.8	309.4	255.1
490.0	362.6	417.9	577.5	596.7	736.4	994.4	 1006	 1113	 1060	 1157	 1313	 1390	 1559	 1688	 1747	 1812	 1780	 1636	 1556	 1437	 1318	 1221	 1212	 1163	 1162	 1139	 1118	 1098	 1095	 1099	 1089	 1079	 1135	 1086	 1088	 1056	979.3	892.1	840.9	786.7	696.3	666.7	610.9	581.0	553.2	506.5	423.5	387.5	364.3	314.5	273.8
495.0	392.6	373.0	548.4	612.7	672.9	899.0	985.6	986.4	 1104	 1087	 1251	 1363	 1500	 1579	 1706	 1701	 1736	 1582	 1444	 1306	 1265	 1191	 1156	 1101	 1080	 1052	 1051	 1023	 1020	 1007	 1027	 1019	 1013	 1044	 1030	974.3	939.5	843.4	791.9	760.4	686.0	652.1	595.2	544.2	521.1	506.7	458.8	392.7	363.6	329.7	296.3
500.0	258.7	273.7	445.6	500.2	707.0	752.3	882.8	927.1	 1051	 1083	 1182	 1248	 1383	 1506	 1530	 1611	 1553	 1549	 1376	 1247	 1158	 1192	 1082	 1026	 1012	 1024	970.5	937.8	941.5	960.0	928.4	950.2	938.2	952.9	944.5	909.0	862.9	804.4	759.9	713.8	659.4	618.9	570.0	529.3	498.0	469.0	453.9	405.1	368.7	332.2	299.0
505.0	265.5	414.1	489.7	436.6	510.0	639.8	786.9	905.8	943.8	 1046	 1015	 1146	 1235	 1395	 1488	 1447	 1460	 1413	 1324	 1147	 1101	 1020	 1010	985.4	937.5	919.9	878.6	872.2	885.4	856.0	853.4	868.2	888.9	896.5	878.5	842.3	813.4	752.8	704.3	661.1	620.0	579.5	541.4	508.2	475.4	454.9	438.8	414.7	355.1	333.0	299.8
510.0	230.1	301.6	360.0	353.1	451.3	637.2	706.3	794.8	817.5	983.2	965.1	 1104	 1153	 1278	 1307	 1377	 1333	 1280	 1207	 1085	 1046	987.1	923.4	904.3	872.2	829.3	814.5	822.8	810.5	801.5	813.9	798.0	802.5	812.8	819.8	800.2	746.9	680.6	654.3	622.6	576.1	546.3	517.0	491.6	453.5	424.8	414.7	397.2	366.1	333.6	296.4
515.0	217.0	312.8	282.0	416.6	485.3	687.6	643.5	678.0	783.5	848.2	943.7	 1034	 1039	 1151	 1194	 1261	 1238	 1194	 1084	999.9	941.6	926.7	876.0	815.0	812.5	762.1	743.1	740.1	724.9	735.2	716.4	712.6	747.0	739.7	723.6	722.9	682.5	648.5	607.1	558.1	538.5	502.7	474.6	455.1	427.5	400.0	376.0	376.0	354.5	334.1	298.5
520.0	239.4	264.9	408.4	363.6	394.4	437.9	618.3	705.4	718.6	739.1	805.9	873.8	930.6	 1060	 1113	 1143	 1203	 1086	 1038	968.8	886.7	830.7	798.2	743.9	741.4	692.2	683.4	663.2	681.6	665.0	662.6	650.6	667.4	676.5	680.5	662.0	612.2	582.8	572.7	525.6	491.9	465.5	439.5	419.4	397.0	378.5	351.9	344.1	327.9	319.0	291.3
525.0	126.4	173.8	229.3	298.3	399.5	493.7	493.0	630.6	663.5	723.5	767.6	799.5	872.0	964.9	992.0	 1101	 1050	 1019	942.1	848.8	821.8	772.9	730.2	695.9	668.3	645.0	623.4	616.2	617.2	612.9	602.8	616.8	615.2	624.5	609.9	612.7	562.5	547.5	503.1	473.2	454.2	439.1	402.2	391.5	359.3	351.0	333.7	320.5	311.4	307.3	280.7
530.0	140.6	232.3	273.9	329.3	334.0	400.2	498.2	531.1	597.0	650.3	680.7	743.1	816.3	856.2	929.8	955.8	919.1	940.9	843.7	771.5	743.2	689.8	677.4	648.1	609.0	595.9	573.8	547.7	567.4	556.0	544.2	544.9	539.9	562.8	553.6	534.6	514.5	471.8	456.4	436.7	406.0	392.9	365.5	351.9	341.9	331.3	311.8	290.1	294.8	277.7	265.4
535.0	166.4	157.2	246.2	271.5	325.5	398.4	504.6	550.2	519.4	571.6	620.1	678.4	715.0	774.4	835.0	875.8	861.2	841.4	792.1	727.5	666.6	627.6	616.2	584.6	544.6	538.7	500.1	519.0	500.0	498.0	500.7	498.3	496.3	510.3	495.9	486.6	460.5	439.8	414.5	396.6	371.6	368.1	336.2	323.4	314.7	296.0	291.1	271.8	273.0	243.9	243.4
540.0	206.2	209.5	253.6	255.7	283.7	397.5	388.4	448.4	523.3	513.6	546.3	633.5	644.7	696.1	832.0	795.2	773.5	756.1	711.7	651.5	591.5	573.3	555.0	521.1	506.8	470.6	461.1	447.9	448.3	453.8	440.6	426.1	445.8	451.8	454.5	425.2	419.3	402.2	382.2	357.7	339.7	323.3	307.4	288.5	274.1	273.2	258.7	262.2	246.6	234.6	219.6
545.0	212.2	120.1	204.8	240.4	276.2	337.2	402.3	417.8	445.8	480.0	509.4	548.3	590.2	579.7	771.1	943.0	693.8	635.0	635.4	597.6	545.5	521.9	511.7	489.0	440.9	428.3	426.2	418.7	405.5	404.7	392.9	396.5	398.4	383.4	383.0	388.1	373.8	349.0	334.2	321.0	300.1	286.0	269.0	260.8	254.7	246.2	231.1	230.7	217.7	218.6	200.5
550.0	182.5	130.8	193.2	197.0	263.9	255.1	288.9	375.3	381.0	432.3	460.7	511.4	538.1	571.0	664.4	 1308	822.8	614.0	541.8	516.6	497.5	468.8	448.6	432.4	400.6	387.5	395.9	385.1	374.5	365.2	376.2	357.3	381.4	377.4	363.7	351.9	339.6	327.3	314.5	289.6	275.2	263.3	250.6	235.1	230.4	230.0	220.1	217.9	204.3	192.2	188.0
