Sample:	'SLABO1-5-5-320
File name:	2N4.FD3
Run Date:	14:58:03, 08/17/2022
Operator:	Administrator
Comment:	'

Instrument
Model:	F-7000 FL Spectrophotometer
Serial Number:	2354-007
ROM Version:	5J14000 06

Instrument Parameters
Measurement type:	3-D Scan
Data mode:	Fluorescence
EX  Start WL:	200.0 nm
EX  End WL:	450.0 nm
EX Sampling Interval:	5.0 nm
EM  Start WL:	280.0 nm
EM  End WL:	550.0 nm
EM Sampling Interval:	5.0 nm
Scan speed:	12000 nm/min
EX Slit:	5.0 nm
EM Slit:	5.0 nm
PMT Voltage:	700 V
Response:	Auto 
Corrected spectra:	Off
Shutter control:	On
Contour interval:	25.000

Peak integration
Integration method:	Rectangular
Sensitivity:	1
Threshold:	1.000

Peaks
No.	ApexEX/EM(nm)	Height(Data)
1	205.0/375.0	571.4
2	205.0/545.0	154.1
3	210.0/315.0	645.6
4	210.0/330.0	708.2
5	210.0/350.0	605.5
6	210.0/380.0	614.1
7	210.0/390.0	724.3
8	210.0/540.0	135.3
9	215.0/300.0	643.7
10	215.0/360.0	587.9
11	215.0/385.0	621.9
12	215.0/520.0	196.4
13	220.0/305.0	640.6
14	220.0/340.0	640.8
15	220.0/400.0	734.0
16	220.0/495.0	346.1
17	220.0/530.0	162.7
18	225.0/315.0	590.3
19	225.0/325.0	685.0
20	225.0/360.0	719.3
21	225.0/485.0	421.4
22	225.0/535.0	169.9
23	230.0/345.0	727.4
24	230.0/380.0	697.2
25	230.0/420.0	814.0
26	230.0/435.0	775.2
27	230.0/490.0	401.7
28	230.0/505.0	334.8
29	230.0/530.0	227.5
30	230.0/540.0	191.4
31	235.0/365.0	655.5
32	235.0/405.0	841.8
33	245.0/380.0	714.0
34	245.0/415.0	861.6
35	250.0/290.0	654.5
36	250.0/340.0	422.4
37	250.0/395.0	807.3
38	250.0/410.0	858.5
39	250.0/420.0	909.0
40	255.0/440.0	878.6
41	255.0/455.0	815.0
42	260.0/345.0	414.9
43	260.0/415.0	870.4
44	260.0/430.0	874.6
45	265.0/425.0	918.2
46	270.0/300.0	489.5
47	270.0/410.0	892.4
48	270.0/440.0	909.0
49	275.0/305.0	651.4
50	275.0/330.0	467.8
51	275.0/355.0	531.6
52	275.0/420.0	885.8
53	275.0/435.0	913.1
54	275.0/460.0	824.8
55	280.0/310.0	747.9
56	280.0/335.0	481.0
57	280.0/425.0	880.8
58	285.0/315.0	779.0
59	285.0/375.0	628.1
60	290.0/320.0	677.7
61	300.0/335.0	574.1
62	305.0/340.0	541.6
63	310.0/345.0	557.0
64	315.0/355.0	525.4
65	320.0/360.0	577.6
66	320.0/425.0	777.5
67	325.0/365.0	634.8
68	325.0/415.0	803.3
69	330.0/370.0	648.6
70	330.0/420.0	781.4
71	335.0/380.0	660.4
72	340.0/385.0	694.0
73	345.0/390.0	684.9
74	350.0/395.0	660.5
75	355.0/405.0	671.4
76	360.0/410.0	657.0
77	365.0/415.0	640.6
78	370.0/425.0	596.6
79	410.0/340.0	11.93
80	425.0/495.0	169.5
81	430.0/315.0	7.562
82	435.0/310.0	7.219
83	435.0/325.0	8.236
84	440.0/345.0	8.058
85	440.0/515.0	110.7
86	445.0/305.0	6.124
87	445.0/525.0	90.93

Data Points
	200.0	205.0	210.0	215.0	220.0	225.0	230.0	235.0	240.0	245.0	250.0	255.0	260.0	265.0	270.0	275.0	280.0	285.0	290.0	295.0	300.0	305.0	310.0	315.0	320.0	325.0	330.0	335.0	340.0	345.0	350.0	355.0	360.0	365.0	370.0	375.0	380.0	385.0	390.0	395.0	400.0	405.0	410.0	415.0	420.0	425.0	430.0	435.0	440.0	445.0	450.0
280.0	37.12	55.54	29.88	38.94	28.41	66.62	36.04	12.59	61.94	143.7	218.0	208.5	105.6	43.80	23.20	 2524	9999.9	 4394	103.9	20.89	21.70	21.94	16.92	15.64	10.41	14.50	11.41	9.927	10.62	11.80	10.02	8.789	9.192	10.01	8.458	7.013	6.637	5.716	5.371	4.365	5.064	4.367	3.291	2.678	2.840	2.307	3.200	2.209	2.182	1.475	1.892
285.0	227.7	193.0	147.7	149.8	171.6	154.4	104.3	62.22	135.4	323.7	426.6	418.1	305.0	154.8	61.68	209.8	 5777	9999.9	9999.9	694.2	32.55	27.11	24.08	20.85	17.20	15.34	12.26	12.82	13.13	11.07	10.77	9.999	10.49	9.419	9.235	6.035	6.710	6.496	6.845	6.032	4.486	4.385	3.283	3.633	2.523	3.752	2.534	3.251	1.974	2.715	2.023
290.0	431.2	340.7	271.4	370.8	278.0	327.1	249.3	153.3	226.8	462.1	654.5	540.1	403.3	359.3	149.0	121.5	444.9	9999.9	9999.9	9999.9	935.9	48.08	40.15	33.35	25.72	16.70	19.39	15.56	13.59	13.26	13.85	9.742	9.352	8.831	11.11	9.268	8.530	7.662	5.426	5.473	5.547	5.146	4.227	2.987	3.690	3.243	3.700	3.680	3.029	3.507	3.192
295.0	658.0	639.4	396.7	424.0	540.1	477.6	349.8	210.7	275.4	435.2	611.7	592.4	372.4	352.6	438.2	221.9	159.0	768.6	9999.9	9999.9	9999.9	 1172	62.71	48.68	32.96	34.23	22.37	17.48	16.92	14.27	12.87	9.885	14.01	13.15	10.18	9.275	8.594	7.965	7.148	7.927	6.092	6.692	4.800	4.482	3.941	5.129	4.536	3.781	3.591	3.665	4.383
300.0	698.8	630.8	536.2	643.7	576.6	587.8	423.2	259.5	295.0	370.5	550.2	497.5	329.7	267.9	489.5	482.8	249.5	213.7	765.1	9999.9	9999.9	9999.9	 1274	72.35	57.27	47.72	40.07	22.40	20.47	19.45	16.36	15.91	13.27	13.01	11.98	10.40	9.587	8.765	9.082	8.749	8.194	6.911	6.176	5.078	4.420	5.455	4.923	4.465	3.298	5.154	5.777
305.0	827.9	607.1	570.3	620.3	640.6	553.4	434.4	294.7	270.6	369.8	434.7	388.0	310.1	274.3	313.5	651.4	519.4	224.2	183.4	767.7	9999.9	9999.9	9999.9	 1446	79.66	65.60	50.38	36.01	28.02	23.33	18.72	16.21	18.80	14.21	16.46	9.866	10.38	9.803	10.58	8.622	8.425	6.766	6.516	6.620	5.813	6.288	4.629	4.352	5.126	6.124	3.747
310.0	867.6	858.0	637.3	577.9	597.5	578.8	474.4	347.6	312.3	321.5	360.6	345.8	303.0	290.4	300.6	419.5	747.9	440.8	192.7	174.4	776.6	9999.9	9999.9	9999.9	 1533	93.64	71.44	62.22	47.11	33.68	26.28	22.33	21.36	15.80	15.07	11.89	12.49	12.05	10.22	9.263	8.673	8.140	7.366	5.807	6.315	5.988	5.759	7.219	5.213	5.352	4.674
315.0	604.6	546.7	645.6	580.3	547.4	590.3	443.4	403.1	324.6	340.3	355.5	352.4	304.7	320.9	345.5	382.3	472.2	779.0	331.8	156.9	160.8	777.6	9999.9	9999.9	9999.9	 1411	105.7	78.80	62.35	43.17	34.62	21.47	27.35	17.84	16.18	13.67	14.53	13.83	10.32	9.438	8.118	9.152	8.160	7.688	6.619	6.459	7.562	6.426	5.621	5.249	5.040
320.0	635.7	582.2	630.1	519.5	530.1	574.7	492.2	413.7	311.0	348.7	356.2	338.7	330.6	326.9	353.5	400.3	395.2	565.1	677.7	263.3	122.7	161.3	794.5	9999.9	9999.9	9999.9	 1401	112.7	91.24	70.09	48.92	31.28	30.09	22.17	19.28	20.03	14.68	13.29	11.34	8.996	9.448	9.780	8.156	7.595	7.109	6.096	6.451	5.187	6.192	4.426	5.705
325.0	621.2	534.4	623.9	548.9	555.7	685.0	537.9	455.0	349.8	354.7	382.1	351.5	315.8	361.4	371.9	405.7	423.9	389.4	559.3	557.3	203.7	136.8	166.8	797.2	9999.9	9999.9	9999.9	 1609	128.6	97.85	71.25	52.49	41.35	29.00	23.88	19.23	19.26	12.55	12.33	11.86	10.17	10.62	8.460	7.683	7.110	6.834	6.752	8.236	6.742	5.631	6.727
330.0	563.6	493.0	708.2	620.7	621.6	662.3	580.6	467.5	332.3	388.2	378.2	363.6	356.9	358.9	417.1	467.8	415.3	415.3	357.7	550.0	475.8	170.0	138.8	168.4	788.7	9999.9	9999.9	9999.9	 1733	143.6	103.6	75.07	59.12	41.90	32.70	21.38	19.50	16.75	14.61	11.72	10.34	10.50	9.006	7.754	7.574	7.359	7.544	6.175	5.680	6.601	5.202
335.0	639.3	585.5	513.4	467.7	541.2	658.4	670.7	518.2	439.2	406.0	390.9	385.6	377.3	355.4	422.8	445.8	481.0	442.4	378.7	344.0	574.1	384.0	161.9	143.0	176.6	805.3	9999.9	9999.9	9999.9	 1730	149.0	111.3	88.01	63.95	41.69	30.41	21.69	19.23	16.08	13.18	12.34	8.886	10.33	7.883	7.145	6.593	6.425	7.690	6.619	6.116	6.031
340.0	534.2	502.0	600.4	626.1	640.8	611.4	647.9	532.3	455.8	378.6	422.4	372.5	370.0	414.3	424.2	453.0	456.5	442.1	376.9	323.3	336.2	541.6	303.4	163.2	146.3	184.6	810.6	9999.9	9999.9	9999.9	 2021	157.1	113.3	87.17	58.14	41.07	28.20	21.29	18.77	15.40	11.47	10.38	11.93	7.904	8.629	7.400	8.224	8.162	7.096	6.027	6.138
345.0	557.2	515.1	458.3	615.9	539.6	597.9	727.4	518.2	427.7	410.1	397.1	392.6	414.9	398.0	421.9	453.1	496.1	447.3	405.9	365.9	302.1	367.0	557.0	277.1	174.9	163.2	193.7	790.4	9999.9	9999.9	9999.9	 2213	167.3	118.8	91.31	62.06	41.93	28.84	24.57	17.23	13.54	12.19	10.90	9.674	9.309	8.350	7.916	6.835	8.058	6.594	6.213
350.0	438.4	566.1	605.5	541.7	581.9	608.7	663.4	603.9	540.2	442.7	420.6	419.0	399.9	433.8	438.4	484.4	492.6	497.0	440.2	365.4	330.6	278.8	446.3	504.5	266.7	197.2	175.4	204.9	824.4	9999.9	9999.9	9999.9	 2330	162.1	119.7	82.44	57.80	40.98	29.53	23.71	17.59	12.10	11.70	9.398	9.647	8.696	8.554	6.088	7.014	7.825	7.638
355.0	531.2	533.0	520.6	568.3	587.6	578.1	647.9	568.4	520.1	500.4	469.1	448.3	427.1	432.9	456.0	531.6	505.3	514.7	492.3	417.9	369.3	316.3	348.3	525.4	499.4	260.4	208.6	195.8	217.4	831.2	9999.9	9999.9	9999.9	 2447	170.3	109.5	84.60	54.03	37.64	24.85	18.86	15.43	14.30	10.16	9.907	9.489	8.768	8.066	8.253	7.839	7.159
360.0	497.4	388.6	535.7	587.9	514.3	719.3	618.7	620.1	613.1	509.5	474.7	467.8	458.1	440.1	451.0	498.9	520.6	535.8	507.9	484.5	394.6	387.5	385.6	387.0	577.6	462.3	296.6	237.6	215.5	222.4	827.4	9999.9	9999.9	9999.9	 2329	175.6	114.2	80.20	54.99	38.06	23.39	20.73	14.81	14.54	10.99	8.766	8.913	8.371	7.388	7.123	6.702
365.0	399.0	494.6	501.7	584.8	511.5	625.5	644.9	655.5	572.0	553.7	541.5	495.4	456.7	503.3	521.3	549.5	552.1	582.3	529.0	483.8	454.0	436.5	428.3	422.6	458.6	634.8	447.7	310.6	253.2	208.9	229.3	821.2	9999.9	9999.9	9999.9	 2638	168.9	117.2	69.59	52.26	33.92	24.90	21.49	15.35	13.23	9.463	9.940	9.078	7.782	8.215	7.385
370.0	403.4	566.8	477.3	398.2	590.1	602.5	603.8	615.6	590.3	601.3	561.6	523.7	530.5	517.3	541.0	578.7	594.9	590.1	561.5	518.2	499.1	498.8	488.8	471.7	464.4	545.6	648.6	438.9	321.3	267.5	229.2	229.5	816.9	9999.9	9999.9	9999.9	 2543	149.9	98.21	70.12	45.66	33.83	21.47	17.25	14.81	12.32	9.428	10.38	8.105	8.126	7.117
375.0	411.4	571.4	526.3	557.1	527.9	651.6	646.1	660.6	654.1	647.2	587.0	557.5	596.4	542.0	599.5	588.4	610.1	628.1	589.8	589.4	569.2	530.8	520.3	533.0	527.5	518.3	612.2	636.0	427.2	326.5	248.0	208.4	217.6	819.2	9999.9	9999.9	9999.9	 2690	137.7	91.52	65.25	46.13	28.45	21.76	16.33	13.74	10.00	9.845	8.224	7.962	8.179
380.0	409.3	469.5	614.1	494.4	549.5	657.0	697.2	681.6	684.6	714.0	659.7	626.4	640.0	617.5	614.2	645.3	652.9	601.7	635.7	603.8	598.0	571.7	588.6	584.5	579.0	569.0	545.1	660.4	595.7	386.2	304.5	251.2	215.2	216.7	814.6	9999.9	9999.9	9999.9	 2394	135.7	87.40	62.18	41.15	29.60	17.87	16.27	13.37	12.07	9.534	9.531	8.207
385.0	393.2	526.4	487.2	621.9	589.5	640.8	676.9	647.9	724.4	683.6	665.4	663.2	624.1	627.6	676.1	687.2	670.1	661.4	632.1	646.5	637.3	634.4	638.5	622.4	626.6	636.1	590.8	574.5	694.0	570.1	381.2	302.4	244.4	209.2	218.5	798.4	9999.9	9999.9	9999.9	 2475	123.5	83.59	58.38	42.36	28.21	19.40	15.18	12.93	11.07	8.871	7.304
390.0	474.8	465.3	724.3	516.0	596.9	711.2	702.3	720.6	742.8	741.3	756.0	725.6	677.6	690.5	667.7	767.8	668.7	679.8	693.4	654.1	655.6	663.7	669.7	644.3	667.8	677.0	646.7	633.0	612.3	684.9	495.9	358.9	302.8	254.6	200.7	210.5	791.9	9999.9	9999.9	9999.9	 2363	116.1	83.25	54.06	38.62	27.65	18.89	15.44	12.87	9.316	8.587
395.0	390.1	476.3	427.3	545.4	691.4	699.4	658.4	745.5	743.1	784.8	807.3	752.9	741.8	695.3	747.5	758.3	744.1	706.8	730.8	696.8	671.9	687.7	715.8	717.8	726.4	692.1	700.2	653.4	614.4	635.9	660.5	461.3	345.9	301.2	246.4	191.8	207.2	776.2	9999.9	9999.9	9999.9	 2358	110.2	75.61	53.19	35.92	25.55	17.93	14.12	11.28	8.395
400.0	369.1	394.3	443.9	622.0	734.0	638.8	720.5	830.8	765.0	831.5	746.2	766.8	765.4	748.5	786.4	813.4	769.1	759.2	717.4	716.5	685.3	724.6	740.6	730.9	722.4	744.6	707.9	701.6	649.0	614.6	648.2	616.3	436.8	353.5	281.4	231.3	187.7	191.0	769.6	9999.9	9999.9	9999.9	 2106	103.7	70.15	48.82	34.09	24.04	17.20	13.21	10.51
405.0	407.4	380.2	443.3	634.8	720.0	661.4	789.1	841.8	755.8	826.5	807.8	792.0	748.8	767.9	819.2	857.8	833.5	760.1	763.3	752.1	708.6	714.7	734.8	762.9	768.9	757.4	750.4	729.1	687.5	648.7	600.2	671.4	586.9	418.3	345.0	273.5	217.4	180.0	187.4	758.4	9999.9	9999.9	9999.9	 1862	90.69	65.77	41.40	31.43	21.01	17.57	12.16
410.0	311.3	465.7	535.2	567.3	627.2	657.8	751.7	784.1	795.1	832.1	858.5	823.7	841.3	808.3	892.4	861.4	837.8	792.7	739.5	736.9	721.5	710.3	758.3	767.0	777.4	784.7	755.0	757.5	702.8	676.7	621.4	615.6	657.0	531.4	405.6	318.9	253.1	201.9	167.2	169.2	748.3	9999.9	9999.9	9999.9	 1789	86.73	57.45	40.40	29.01	19.86	18.02
415.0	411.9	463.4	586.4	584.2	626.7	608.7	812.6	728.7	782.6	861.6	806.4	780.9	870.4	833.2	840.1	859.7	824.4	806.5	767.1	765.6	734.5	752.0	763.5	765.3	777.3	803.3	779.8	760.9	716.5	694.0	647.2	609.0	612.7	640.6	486.4	368.1	293.0	238.7	190.6	143.3	164.1	740.0	9999.9	9999.9	9999.9	 1775	79.56	55.49	36.05	28.11	19.15
420.0	350.5	391.5	527.9	536.1	649.5	718.5	814.0	726.9	811.5	838.8	909.0	829.4	802.4	830.2	884.0	885.8	835.2	790.0	752.1	740.1	719.0	733.7	732.5	754.6	771.4	780.5	781.4	769.7	729.8	729.1	655.9	629.6	580.6	608.4	585.1	424.6	327.7	258.1	214.3	167.4	134.9	151.6	738.3	9999.9	9999.9	9999.9	 1520	78.45	52.42	37.99	27.09
425.0	340.4	417.6	554.2	604.8	610.8	755.3	762.1	790.6	791.1	840.1	835.7	790.9	860.4	918.2	893.1	855.2	880.8	796.8	808.8	749.4	713.5	713.2	732.0	742.3	777.5	777.3	774.5	745.6	728.1	717.3	680.1	648.5	590.9	577.7	596.6	533.1	377.7	292.6	241.1	182.1	145.0	116.4	141.2	720.6	9999.9	9999.9	9999.9	 1309	67.99	50.53	33.48
430.0	434.9	446.9	548.2	466.1	567.5	671.3	721.1	754.7	765.0	797.9	848.4	869.0	874.6	861.1	892.3	875.2	850.0	823.5	792.0	737.1	709.9	714.2	705.2	718.1	741.4	729.9	740.1	724.4	727.6	710.8	675.4	653.9	631.2	588.7	553.8	550.0	452.5	328.4	262.9	209.4	175.9	130.7	107.6	134.5	714.5	9999.9	9999.9	9999.9	 1164	70.50	47.51
435.0	420.1	466.7	479.6	534.5	602.0	659.0	775.2	766.2	770.6	865.1	848.6	867.4	848.0	868.0	906.5	913.1	850.6	825.2	759.4	713.3	694.5	709.4	695.9	707.4	706.4	712.9	720.6	732.2	714.4	689.5	671.4	648.4	628.2	590.3	538.6	519.4	498.6	372.8	284.0	226.8	186.6	143.5	124.5	101.4	125.6	710.5	9999.9	9999.9	9999.9	 1161	65.10
440.0	321.7	394.7	428.5	485.2	639.0	629.5	771.7	658.3	777.6	809.7	849.4	878.6	855.0	888.0	909.0	907.0	841.7	821.4	732.2	703.9	704.3	670.5	698.6	670.3	682.1	691.5	681.3	700.6	693.6	665.5	655.4	648.6	634.8	591.4	544.9	496.3	484.4	453.1	323.3	263.8	204.2	167.0	124.9	102.8	86.06	120.2	701.8	9999.9	9999.9	9999.9	999.4
445.0	320.5	379.4	393.2	457.7	633.0	648.9	674.1	690.3	735.1	782.9	798.4	800.8	866.7	867.3	898.3	896.2	844.4	765.3	719.1	693.2	651.2	642.1	669.5	669.3	674.2	654.2	668.1	680.3	680.1	652.9	641.1	614.0	604.9	577.6	541.9	499.5	433.5	434.2	376.3	270.4	219.2	177.9	145.8	118.1	98.17	83.74	115.0	698.0	9999.9	9999.9	9999.9
450.0	316.2	311.5	436.4	487.7	516.1	532.3	671.4	678.7	760.9	795.5	730.8	792.6	770.2	861.0	863.2	841.2	804.2	765.8	736.8	686.0	636.4	620.1	629.4	650.1	649.8	631.1	621.8	647.7	639.5	618.8	613.9	604.0	598.9	585.5	549.8	495.4	443.6	391.9	389.1	321.5	233.9	196.6	157.3	135.3	110.6	88.10	76.70	113.2	697.6	9999.9	9999.9
455.0	376.4	340.4	424.3	410.1	571.6	558.2	641.9	631.9	681.6	679.9	782.1	815.0	760.8	752.2	808.9	806.0	776.1	729.6	687.0	648.0	592.6	609.0	572.8	587.3	596.6	587.5	600.0	610.6	620.5	603.9	610.0	598.1	564.7	564.9	524.5	482.5	437.2	369.1	356.8	352.1	272.9	211.7	169.4	138.0	113.2	98.04	81.98	69.65	106.4	693.0	9999.9
460.0	294.4	284.8	383.5	421.0	459.0	595.7	557.2	591.4	653.2	690.3	725.3	755.7	716.0	748.8	768.2	824.8	744.7	703.6	675.4	611.5	587.8	550.7	537.8	548.7	567.8	568.1	579.2	587.3	573.1	572.8	542.7	555.8	548.6	535.8	510.6	464.9	417.8	387.7	328.3	325.1	306.1	226.1	184.6	152.0	123.6	105.9	89.54	76.42	68.26	101.7	687.0
465.0	379.1	279.5	311.9	421.5	473.1	487.2	546.1	576.5	595.5	689.2	697.9	712.8	717.0	721.7	763.5	772.0	731.1	691.3	621.2	575.3	548.2	535.2	525.2	512.3	543.2	538.0	530.1	531.7	540.1	528.9	531.5	522.1	519.4	499.0	492.2	446.7	409.6	378.3	314.9	287.8	287.8	266.0	196.6	160.9	136.2	117.8	91.73	82.40	73.21	66.94	99.66
470.0	248.6	230.4	327.7	340.1	438.8	443.8	486.1	521.3	558.3	598.1	612.4	628.6	683.8	709.5	666.2	651.9	663.7	641.5	567.8	541.5	527.4	508.1	490.4	470.9	492.7	465.8	486.2	490.2	491.6	490.9	474.7	488.6	482.4	477.7	454.7	432.9	387.1	365.6	305.0	291.0	253.9	264.7	225.8	170.0	141.4	124.2	102.5	87.14	75.52	66.23	57.64
475.0	202.8	189.2	331.2	332.2	362.6	420.4	402.5	481.8	514.6	559.5	602.6	575.6	621.4	629.0	673.4	645.2	656.3	625.0	548.0	514.2	481.6	487.5	445.1	452.6	450.3	453.5	468.7	467.6	466.8	450.6	458.3	443.7	444.6	460.0	431.0	412.1	355.0	328.7	292.7	265.9	238.6	231.5	235.5	179.5	146.6	131.9	109.2	93.31	77.73	67.41	59.71
480.0	219.2	229.7	292.3	277.9	332.0	405.3	392.2	447.9	476.1	506.5	555.4	553.9	598.2	596.0	607.9	599.5	574.0	580.8	549.0	478.7	454.1	437.3	425.0	438.4	430.3	416.2	407.4	410.6	424.1	416.1	419.5	424.9	412.3	405.8	402.6	383.7	355.7	320.7	290.9	262.4	230.9	214.3	208.1	199.6	159.7	134.0	112.9	97.95	87.25	75.97	62.60
485.0	213.6	229.8	216.6	343.1	334.8	421.4	368.2	433.8	455.4	487.2	517.5	543.9	595.9	562.3	587.3	583.8	568.3	512.3	513.8	462.8	431.6	415.3	386.0	407.9	384.9	396.3	393.9	401.4	400.1	398.5	394.2	398.6	393.8	387.7	380.5	370.0	325.6	307.8	277.1	250.7	220.6	206.3	193.1	191.9	179.6	135.9	110.7	96.01	83.74	76.69	67.82
490.0	243.4	278.1	267.4	299.4	340.5	356.8	401.7	397.5	380.7	509.0	440.8	527.5	523.6	554.1	546.2	546.1	563.9	497.2	468.1	434.9	417.5	409.0	383.5	397.5	373.9	363.1	386.0	372.1	365.0	371.5	367.5	370.0	364.3	365.6	355.9	331.5	326.9	297.2	271.1	239.1	218.9	201.6	187.4	178.3	175.1	156.0	123.9	104.3	91.27	77.87	68.96
495.0	196.3	214.5	251.3	256.8	346.1	325.5	328.7	415.4	375.5	441.5	460.8	497.4	523.8	502.5	546.2	522.8	506.4	493.5	431.2	395.6	377.6	373.5	347.3	371.3	350.2	328.8	340.1	336.7	333.3	342.4	337.7	348.7	347.9	336.1	332.3	316.8	305.2	280.3	254.1	232.6	210.7	197.7	172.1	169.1	159.6	169.5	135.1	111.4	90.74	84.86	74.25
500.0	112.7	203.7	230.4	273.3	271.6	273.6	297.1	318.2	371.8	378.6	419.6	432.0	479.7	477.9	496.2	514.0	473.7	429.7	423.1	379.5	344.2	353.1	335.1	338.3	328.3	301.9	311.7	313.8	321.4	308.6	310.1	304.1	321.7	311.1	317.2	299.3	284.1	253.2	242.3	212.7	203.8	189.2	171.5	160.7	140.6	141.0	139.8	115.1	94.06	81.41	72.99
505.0	230.2	171.9	175.4	222.7	222.4	240.0	334.8	328.5	332.7	344.3	422.9	423.6	444.8	436.0	475.9	483.0	425.9	408.1	371.4	356.8	326.8	314.4	285.3	290.1	278.6	279.3	287.6	295.1	291.2	288.7	292.3	278.4	289.3	298.3	284.4	271.0	265.4	238.3	219.7	203.2	183.4	174.5	167.5	150.1	137.8	130.6	128.7	122.0	99.72	82.38	73.73
510.0	140.2	178.5	180.5	178.1	242.5	280.3	278.9	311.7	289.7	333.9	386.5	383.4	395.8	423.2	443.8	431.3	406.0	400.8	358.7	308.6	306.6	292.6	274.6	275.6	276.5	274.4	267.7	260.7	252.0	266.4	268.1	256.0	264.6	269.3	265.1	250.0	244.6	221.5	207.4	188.1	178.3	170.3	158.0	141.4	131.9	121.7	116.1	122.0	101.3	83.67	71.35
515.0	89.22	172.4	183.4	189.2	213.9	231.5	247.2	296.7	309.1	303.1	315.7	349.7	345.6	390.4	384.5	375.3	366.3	367.3	325.9	305.2	287.6	277.7	244.3	253.7	246.6	242.3	237.1	226.7	237.5	237.3	249.1	236.9	243.8	239.1	246.4	229.2	217.6	198.8	188.8	173.8	166.6	159.6	140.3	131.7	115.7	114.5	103.2	105.7	110.7	88.62	75.19
520.0	75.27	107.6	150.6	196.4	169.2	214.8	216.4	245.7	284.5	294.9	288.6	310.3	315.6	334.5	357.3	356.5	341.6	337.4	291.0	288.0	248.9	228.0	226.6	224.1	209.8	221.5	217.2	211.6	208.5	210.2	218.0	214.0	215.1	221.0	217.1	206.3	197.0	181.8	173.1	160.5	151.9	141.4	129.4	132.6	121.2	103.7	100.6	90.12	101.9	89.23	73.68
525.0	34.35	129.5	134.8	109.9	121.9	184.2	217.2	198.3	214.9	266.3	284.9	281.4	288.5	361.7	326.7	330.4	312.8	312.4	291.3	264.4	238.4	231.4	220.4	202.1	204.7	192.7	198.9	195.8	192.7	186.6	184.4	183.3	195.0	199.8	202.2	189.7	180.0	170.2	157.2	148.2	134.1	130.1	117.2	107.1	100.9	96.38	91.08	89.03	88.51	90.93	84.98
530.0	106.8	116.6	113.8	154.6	162.7	149.7	227.5	179.1	190.5	257.0	232.6	253.5	284.5	287.7	298.8	310.3	279.8	281.0	259.5	236.6	217.3	201.6	195.4	191.5	184.8	176.6	182.6	180.3	163.8	179.7	168.2	162.6	181.0	176.9	172.3	174.9	164.5	154.7	138.5	130.7	127.6	118.6	111.3	100.3	96.67	91.77	85.54	80.42	75.56	73.90	78.71
535.0	69.93	114.6	116.5	149.0	148.3	169.9	130.6	169.5	192.2	198.5	189.9	215.4	248.6	244.9	294.7	268.7	271.0	265.2	237.4	218.5	200.1	190.6	184.8	162.9	167.3	162.1	161.4	155.5	157.5	164.3	157.1	147.4	149.6	161.6	153.6	144.5	141.0	132.3	126.3	116.1	112.8	100.0	97.57	97.07	90.54	81.16	76.59	76.78	70.12	67.94	72.61
540.0	93.56	123.4	135.3	133.7	103.6	126.0	191.4	156.2	162.9	183.9	199.2	215.4	211.6	250.7	307.0	276.3	223.8	221.2	211.6	191.5	175.0	183.5	155.0	153.4	150.5	158.6	142.6	143.0	142.7	143.3	141.5	137.9	135.9	145.4	130.5	140.0	122.9	122.5	117.0	108.0	101.4	96.14	89.96	84.30	78.85	75.32	72.85	69.27	65.84	60.31	59.31
545.0	96.08	154.1	74.36	70.01	99.52	147.9	162.5	162.1	148.3	150.7	186.9	188.7	192.6	196.1	332.6	397.4	219.0	193.0	196.4	183.4	159.8	152.7	145.8	150.8	137.9	136.1	131.1	128.7	121.1	122.2	121.6	126.2	123.0	125.5	129.3	118.8	115.6	104.4	101.8	96.79	90.73	85.64	80.12	79.11	73.56	71.53	68.14	65.41	61.14	55.04	51.49
550.0	68.38	136.8	93.39	126.7	104.6	122.3	152.7	130.7	169.8	156.9	166.6	155.8	167.4	185.0	254.0	693.8	338.1	185.9	175.0	158.5	147.2	136.5	133.7	123.9	126.7	127.6	120.7	111.1	117.0	113.4	118.2	111.4	114.1	122.1	113.9	109.8	101.1	100.2	91.53	89.55	84.43	80.11	79.47	71.46	66.50	65.18	63.24	58.77	56.20	53.63	52.18
