Sample:	'SLABO1-5-5-320
File name:	2N5.FD3
Run Date:	15:55:02, 08/17/2022
Operator:	Administrator
Comment:	'

Instrument
Model:	F-7000 FL Spectrophotometer
Serial Number:	2354-007
ROM Version:	5J14000 06

Instrument Parameters
Measurement type:	3-D Scan
Data mode:	Fluorescence
EX  Start WL:	200.0 nm
EX  End WL:	450.0 nm
EX Sampling Interval:	5.0 nm
EM  Start WL:	280.0 nm
EM  End WL:	550.0 nm
EM Sampling Interval:	5.0 nm
Scan speed:	12000 nm/min
EX Slit:	5.0 nm
EM Slit:	5.0 nm
PMT Voltage:	700 V
Response:	Auto 
Corrected spectra:	Off
Shutter control:	On
Contour interval:	25.000

Peak integration
Integration method:	Rectangular
Sensitivity:	1
Threshold:	1.000

Peaks
No.	ApexEX/EM(nm)	Height(Data)
1	205.0/530.0	253.8
2	210.0/325.0	759.8
3	210.0/335.0	725.6
4	225.0/535.0	358.1
5	230.0/355.0	 1260
6	230.0/405.0	 1843
7	230.0/415.0	 1873
8	240.0/370.0	 1302
9	240.0/420.0	 2047
10	250.0/395.0	 1781
11	250.0/415.0	 2085
12	250.0/430.0	 2113
13	260.0/285.0	201.1
14	265.0/415.0	 2081
15	270.0/425.0	 2185
16	270.0/440.0	 2219
17	275.0/305.0	760.6
18	275.0/435.0	 2192
19	280.0/310.0	925.5
20	285.0/315.0	994.6
21	290.0/320.0	907.5
22	295.0/330.0	809.9
23	300.0/335.0	762.7
24	305.0/340.0	767.9
25	310.0/345.0	717.6
26	315.0/355.0	819.7
27	330.0/420.0	 2086
28	340.0/430.0	 2000
29	345.0/285.0	6.793
30	370.0/290.0	6.314
31	375.0/295.0	7.257
32	405.0/305.0	5.408
33	405.0/330.0	7.666
34	415.0/335.0	5.870
35	425.0/345.0	6.047
36	430.0/325.0	5.301
37	435.0/340.0	6.364
38	440.0/290.0	3.125
39	440.0/300.0	4.320
40	440.0/320.0	4.977

Data Points
	200.0	205.0	210.0	215.0	220.0	225.0	230.0	235.0	240.0	245.0	250.0	255.0	260.0	265.0	270.0	275.0	280.0	285.0	290.0	295.0	300.0	305.0	310.0	315.0	320.0	325.0	330.0	335.0	340.0	345.0	350.0	355.0	360.0	365.0	370.0	375.0	380.0	385.0	390.0	395.0	400.0	405.0	410.0	415.0	420.0	425.0	430.0	435.0	440.0	445.0	450.0
280.0	47.54	80.28	67.13	38.43	30.93	36.75	36.68	25.44	31.42	50.09	71.99	74.73	53.68	20.64	19.60	 1322	 7886	 2806	73.40	11.96	12.47	13.66	7.971	11.58	9.322	5.816	5.960	5.523	6.577	6.746	5.544	4.458	3.692	4.939	3.425	4.114	3.581	4.575	3.530	2.860	2.498	1.802	1.767	1.697	0.938	1.535	1.838	1.006	1.632	1.557	1.571
285.0	180.9	151.5	98.19	113.1	162.5	138.0	92.34	52.17	43.24	113.2	186.4	161.2	201.1	109.5	49.99	125.4	 3316	9999.9	9999.9	543.4	20.60	15.70	14.17	11.48	9.573	7.248	5.230	7.240	5.445	6.793	5.218	4.467	4.361	4.791	4.497	4.854	4.098	3.695	2.945	3.140	2.484	2.412	2.154	3.291	1.254	1.606	2.687	1.901	1.851	1.298	1.627
290.0	302.0	241.6	212.0	188.7	306.4	233.0	226.1	118.0	100.8	150.3	218.8	197.3	198.2	283.2	140.1	107.6	287.7	 7169	9999.9	9999.9	645.6	27.78	22.48	19.93	13.36	10.37	9.588	7.328	6.848	5.632	6.502	5.313	4.393	5.521	6.314	4.561	3.173	4.682	4.747	4.070	2.662	3.228	3.103	2.057	2.624	2.211	2.433	2.077	3.125	2.648	1.997
295.0	392.4	364.6	347.9	344.8	414.4	392.4	324.6	206.6	165.9	170.2	253.2	222.1	186.6	285.1	421.0	231.2	170.4	577.9	9999.9	9999.9	9999.9	816.0	34.87	28.43	23.61	18.24	14.46	10.64	8.096	9.247	8.875	6.566	5.915	7.321	5.132	7.257	5.025	5.236	3.789	3.732	2.200	3.375	3.263	3.387	2.681	3.079	2.290	2.707	2.095	2.898	2.423
300.0	559.7	462.3	421.1	419.2	484.8	510.7	423.1	251.0	185.9	206.0	269.6	237.0	227.9	239.2	504.1	588.9	298.5	248.2	769.9	9999.9	9999.9	9999.9	854.6	45.46	32.98	23.35	19.89	12.33	11.57	10.69	8.233	5.803	8.963	7.421	4.396	5.751	5.913	4.717	4.595	3.915	4.514	3.184	3.685	2.517	3.620	2.898	3.137	3.057	4.320	3.400	3.256
305.0	672.5	581.7	511.1	520.1	559.6	463.1	559.0	325.3	275.7	252.3	285.4	262.1	272.0	293.4	374.7	760.6	637.0	339.7	241.5	753.3	9999.9	9999.9	9999.9	970.1	41.02	32.67	24.63	22.10	15.31	11.01	10.71	6.811	9.812	7.537	7.732	7.155	4.928	4.635	4.256	3.918	4.779	5.408	4.344	3.457	3.618	3.118	3.819	3.210	2.998	4.877	3.832
310.0	721.3	632.4	574.0	525.0	609.3	709.0	562.2	441.7	284.4	292.5	317.8	323.9	315.6	354.2	442.1	526.6	925.5	617.9	279.3	211.5	745.9	9999.9	9999.9	9999.9	977.2	47.41	35.78	32.18	16.97	17.55	12.42	11.97	11.47	9.372	6.403	9.043	7.143	6.962	5.740	5.090	4.493	3.646	4.645	4.091	3.161	4.046	4.155	2.338	4.461	4.526	3.092
315.0	612.6	543.8	481.8	535.6	619.9	726.1	620.9	462.6	322.6	383.8	352.0	362.5	403.2	429.6	492.5	532.6	712.3	994.6	491.3	245.4	177.7	734.6	9999.9	9999.9	9999.9	861.2	50.52	40.19	30.32	24.63	15.78	11.51	13.43	9.396	8.203	8.536	6.851	6.212	6.092	5.254	5.255	4.733	4.380	4.530	3.611	4.413	3.154	2.978	4.018	4.292	4.991
320.0	466.1	553.5	604.6	550.4	537.6	838.1	688.8	508.4	410.1	431.6	404.1	430.3	475.8	465.8	561.4	621.3	665.8	822.1	907.5	367.6	196.1	173.6	747.8	9999.9	9999.9	9999.9	841.6	55.75	37.74	31.15	22.73	16.07	13.73	10.80	9.222	10.02	6.591	5.828	5.812	5.144	5.793	5.878	4.380	4.283	3.593	3.865	4.813	3.042	4.977	4.914	3.633
325.0	443.4	561.3	759.8	607.2	805.5	927.2	994.9	680.3	466.1	479.7	474.1	470.0	520.6	532.6	621.2	679.8	755.0	732.2	860.3	783.0	288.8	170.6	169.0	750.3	9999.9	9999.9	9999.9	929.1	63.47	45.81	32.36	23.36	18.51	14.14	10.73	8.762	7.629	8.335	6.962	5.864	4.909	6.392	3.597	4.326	4.196	4.428	5.301	4.133	4.183	4.485	5.598
330.0	511.4	589.4	599.2	690.0	700.8	967.7	 1025	866.9	533.8	538.9	520.4	514.5	556.3	573.9	725.1	745.6	790.3	795.7	700.2	809.9	635.2	260.5	164.8	186.8	739.2	9999.9	9999.9	9999.9	936.8	68.31	52.00	35.31	27.09	19.01	16.94	11.94	9.808	9.539	6.659	6.461	5.757	7.666	4.636	5.817	4.142	4.934	3.840	3.264	3.920	4.441	4.756
335.0	423.4	558.9	725.6	638.2	914.1	966.1	 1038	973.8	603.5	586.2	526.0	579.9	605.7	607.7	734.2	858.2	943.0	871.1	760.2	635.1	762.7	505.7	236.4	185.2	172.4	757.8	9999.9	9999.9	9999.9	965.1	71.81	48.24	39.65	25.02	17.41	12.41	11.69	9.396	7.889	7.738	6.234	5.926	4.666	5.870	5.254	5.303	4.300	5.508	4.648	4.584	4.942
340.0	374.4	557.2	608.3	695.2	798.7	 1085	 1134	 1081	690.4	611.5	577.4	613.4	625.5	637.4	787.5	918.4	968.4	952.0	822.8	683.8	610.5	767.9	443.8	266.9	199.1	220.4	767.4	9999.9	9999.9	9999.9	 1066	75.54	53.40	35.64	24.93	17.89	15.99	10.32	8.772	7.230	8.242	5.495	4.925	5.861	5.367	4.892	4.932	6.364	4.619	6.575	4.665
345.0	424.6	548.3	597.4	695.0	814.7	 1147	 1201	 1142	885.4	732.6	639.3	699.2	686.2	668.4	786.3	954.4	 1046	 1019	899.3	758.1	607.4	606.3	717.6	428.5	290.7	238.3	227.6	783.6	9999.9	9999.9	9999.9	 1154	71.26	53.56	38.19	29.03	20.94	13.35	10.26	8.936	8.093	5.914	6.433	4.477	5.090	6.047	4.567	4.040	3.947	6.150	4.448
350.0	534.0	493.2	617.9	720.7	744.4	991.7	 1182	 1092	938.6	795.9	778.1	774.8	745.1	766.4	888.8	960.9	 1056	 1098	 1003	850.1	702.0	611.4	715.1	754.2	440.9	333.2	283.5	259.9	813.5	9999.9	9999.9	9999.9	 1204	76.93	51.50	38.46	27.34	18.77	14.25	12.81	8.305	7.298	6.200	5.735	4.569	3.734	5.909	5.147	3.691	6.131	5.856
355.0	377.3	497.2	653.2	713.3	794.2	980.1	 1260	 1203	 1019	884.8	894.9	838.6	799.6	849.7	962.9	 1074	 1144	 1102	 1087	993.8	824.6	752.3	680.2	819.7	753.2	495.4	402.0	315.2	291.0	811.0	9999.9	9999.9	9999.9	 1235	82.36	54.37	39.05	29.81	16.70	12.45	9.737	8.287	6.305	6.320	5.178	6.086	5.156	4.939	4.060	6.502	5.369
360.0	435.9	548.6	766.7	665.4	869.2	 1104	 1165	 1161	 1008	 1040	899.4	858.4	926.9	940.2	 1043	 1102	 1223	 1212	 1118	 1006	947.7	850.6	796.3	776.4	905.5	774.5	534.9	433.8	357.3	316.5	812.7	9999.9	9999.9	9999.9	 1186	76.12	50.98	32.78	25.41	17.50	12.37	8.325	7.167	5.989	6.385	5.139	5.650	5.845	6.317	5.746	5.269
365.0	450.1	480.9	653.7	709.8	898.2	 1065	 1192	 1168	 1146	 1084	 1054	960.4	 1037	 1072	 1118	 1221	 1200	 1250	 1257	 1170	 1029	 1011	948.0	923.9	908.8	 1051	815.8	586.5	499.1	383.2	316.3	829.1	9999.9	9999.9	9999.9	 1312	75.49	45.07	31.65	22.31	16.96	14.65	8.393	6.423	6.437	4.732	6.367	6.849	5.616	6.389	5.607
370.0	345.1	524.3	610.4	681.4	 1044	 1062	 1232	 1161	 1302	 1193	 1115	 1155	 1141	 1175	 1211	 1308	 1397	 1327	 1317	 1232	 1164	 1103	 1104	 1072	 1017	 1046	 1147	847.2	630.5	517.2	390.1	312.4	814.4	9999.9	9999.9	9999.9	 1259	71.55	49.39	30.83	24.04	16.71	12.85	10.94	8.757	6.809	5.568	5.917	6.577	6.406	6.581
375.0	471.7	539.3	718.1	801.9	898.0	 1091	 1251	 1197	 1267	 1290	 1207	 1098	 1226	 1291	 1305	 1409	 1364	 1438	 1382	 1355	 1260	 1265	 1254	 1213	 1205	 1142	 1177	 1146	839.6	668.7	520.0	385.8	323.3	824.0	9999.9	9999.9	9999.9	 1313	70.06	44.14	28.85	22.73	15.62	11.68	10.09	7.840	6.190	6.141	7.064	7.031	6.569
380.0	461.8	530.5	707.0	798.4	 1062	 1323	 1311	 1358	 1321	 1356	 1327	 1307	 1364	 1418	 1431	 1468	 1516	 1513	 1504	 1414	 1420	 1374	 1388	 1367	 1347	 1257	 1220	 1295	 1137	854.6	687.2	522.5	392.3	324.7	828.5	9999.9	9999.9	9999.9	 1173	58.30	42.00	29.01	22.44	15.30	10.13	9.548	7.551	6.842	7.234	6.608	6.834
385.0	385.8	507.0	751.9	773.4	 1002	 1260	 1337	 1432	 1454	 1459	 1401	 1443	 1477	 1477	 1522	 1587	 1613	 1581	 1603	 1499	 1512	 1501	 1504	 1477	 1473	 1411	 1399	 1324	 1355	 1134	855.1	671.8	529.2	390.7	307.1	825.7	9999.9	9999.9	9999.9	 1211	58.63	40.44	25.34	18.68	13.70	12.66	10.81	8.429	8.074	7.256	6.511
390.0	475.7	639.3	896.3	 1105	 1159	 1257	 1391	 1488	 1566	 1623	 1593	 1586	 1540	 1600	 1616	 1651	 1705	 1665	 1630	 1600	 1589	 1616	 1628	 1635	 1609	 1653	 1541	 1465	 1407	 1381	 1105	850.3	680.2	546.9	404.5	325.1	826.5	 9849	9999.9	9999.9	 1172	55.04	34.71	23.55	20.18	15.32	9.675	9.322	7.413	7.999	7.363
395.0	434.4	758.1	956.7	 1003	 1160	 1578	 1500	 1489	 1604	 1637	 1781	 1720	 1771	 1656	 1745	 1790	 1790	 1784	 1726	 1662	 1676	 1698	 1692	 1757	 1763	 1720	 1692	 1618	 1514	 1453	 1414	 1088	854.0	703.0	524.3	392.3	308.1	806.2	 9430	9999.9	9999.9	 1158	52.09	35.26	25.35	17.24	13.69	10.90	9.596	10.94	6.794
400.0	432.2	632.3	 1130	 1222	 1429	 1573	 1678	 1710	 1704	 1778	 1725	 1805	 1843	 1792	 1881	 1846	 1846	 1855	 1744	 1714	 1776	 1747	 1808	 1834	 1854	 1866	 1833	 1761	 1673	 1559	 1506	 1375	 1081	863.0	671.9	509.1	371.8	313.1	779.0	 8936	9999.9	9999.9	 1033	49.07	34.88	23.67	18.31	13.42	11.92	12.16	9.399
405.0	480.5	760.1	 1026	 1141	 1458	 1669	 1843	 1663	 1819	 1880	 1837	 1836	 1914	 1866	 1878	 1928	 1934	 1872	 1877	 1853	 1798	 1794	 1868	 1895	 1938	 1999	 1950	 1869	 1794	 1689	 1543	 1509	 1343	 1027	859.3	644.5	496.4	356.8	281.2	724.1	 7820	9999.9	9999.9	916.0	46.07	28.75	22.77	14.68	11.93	13.42	10.27
410.0	470.7	696.6	959.7	 1150	 1380	 1667	 1779	 1775	 1884	 1981	 2066	 1989	 1986	 2018	 2054	 1996	 1932	 1939	 1906	 1828	 1812	 1835	 1892	 1969	 1976	 2041	 2022	 1957	 1911	 1798	 1651	 1557	 1525	 1280	 1002	797.7	597.3	458.1	317.5	270.5	642.3	 8063	9999.9	9999.9	832.6	46.94	28.89	23.53	15.38	15.18	10.94
415.0	496.4	747.1	 1076	 1230	 1553	 1751	 1873	 1868	 1842	 1875	 2085	 1997	 2004	 2081	 2060	 2005	 2014	 1997	 1868	 1831	 1820	 1867	 1901	 1960	 2004	 2063	 2069	 2041	 1941	 1890	 1746	 1629	 1570	 1512	 1239	941.4	738.1	572.4	411.6	301.8	239.6	650.8	 7396	9999.9	9999.9	844.3	41.67	28.75	21.61	20.04	13.84
420.0	471.8	765.8	 1009	 1190	 1525	 1749	 1837	 1813	 2047	 1961	 2041	 2029	 2074	 2069	 2133	 2086	 2086	 1964	 1961	 1852	 1733	 1820	 1891	 1929	 2012	 2031	 2086	 2046	 1996	 1903	 1834	 1690	 1598	 1533	 1405	 1082	826.2	655.1	488.7	369.5	259.0	223.2	588.7	 7051	9999.9	9999.9	759.5	45.38	25.48	26.12	16.79
425.0	577.0	732.2	 1001	 1069	 1531	 1700	 1790	 1710	 1939	 2049	 2110	 2024	 2057	 2059	 2185	 2162	 2119	 2015	 1906	 1880	 1811	 1811	 1844	 1947	 1975	 2024	 2028	 2024	 1999	 1960	 1879	 1752	 1655	 1538	 1453	 1243	951.7	742.9	587.0	441.2	330.4	248.1	210.5	563.5	 6453	9999.9	9999.9	631.3	43.23	30.20	19.97
430.0	518.2	685.8	 1006	 1351	 1359	 1746	 1836	 1861	 1866	 1976	 2113	 2062	 2106	 2164	 2146	 2109	 2059	 2022	 1904	 1807	 1795	 1724	 1826	 1909	 1975	 1960	 2003	 1991	 2000	 1981	 1865	 1786	 1701	 1584	 1481	 1350	 1092	815.8	653.6	507.8	393.7	297.7	230.8	184.3	517.7	 6222	9999.9	9999.9	588.5	43.00	26.27
435.0	481.9	690.9	889.0	 1238	 1370	 1653	 1813	 1693	 1913	 1915	 2085	 2003	 2140	 2163	 2113	 2192	 2170	 1965	 1829	 1781	 1742	 1738	 1777	 1851	 1880	 1934	 1972	 1940	 1950	 1927	 1857	 1803	 1730	 1616	 1493	 1356	 1222	970.7	760.9	602.4	473.7	365.6	279.1	208.1	187.7	500.3	 5990	9999.9	9999.9	644.9	37.42
440.0	420.6	726.3	 1072	 1091	 1357	 1503	 1759	 1765	 1775	 1887	 2013	 2037	 2098	 2213	 2219	 2188	 2106	 1934	 1869	 1769	 1676	 1670	 1707	 1794	 1814	 1884	 1901	 1904	 1862	 1900	 1841	 1786	 1714	 1626	 1537	 1372	 1228	 1078	824.7	665.5	533.7	432.4	335.4	253.7	201.7	180.0	490.2	 5967	9999.9	9999.9	509.9
445.0	350.7	725.9	748.9	 1068	 1257	 1485	 1677	 1753	 1672	 1843	 1941	 2023	 2071	 2087	 2119	 2119	 2060	 1959	 1819	 1696	 1620	 1642	 1658	 1699	 1747	 1842	 1835	 1840	 1833	 1834	 1782	 1750	 1690	 1654	 1568	 1387	 1238	 1095	938.6	728.1	591.7	482.6	391.1	311.1	240.7	196.0	173.8	477.8	 6013	9999.9	9999.9
450.0	443.1	716.1	760.7	 1084	 1291	 1418	 1535	 1645	 1625	 1918	 1877	 2009	 1973	 2097	 2110	 2087	 1975	 1883	 1777	 1637	 1593	 1556	 1579	 1606	 1629	 1689	 1750	 1758	 1789	 1759	 1697	 1711	 1679	 1606	 1495	 1379	 1200	 1083	986.9	812.9	629.1	538.0	435.1	352.4	288.6	235.9	189.1	169.2	482.3	 5954	9999.9
455.0	450.0	579.3	720.3	980.9	 1032	 1369	 1542	 1519	 1655	 1700	 1819	 1849	 1971	 2012	 2061	 2007	 1978	 1841	 1678	 1518	 1466	 1463	 1514	 1521	 1520	 1592	 1610	 1671	 1673	 1644	 1641	 1618	 1608	 1550	 1481	 1371	 1208	 1067	944.7	861.9	702.2	586.2	497.0	399.0	338.2	270.6	220.0	174.4	164.5	474.1	 5639
460.0	456.4	635.4	824.1	850.0	 1097	 1246	 1415	 1460	 1557	 1630	 1660	 1792	 1890	 1951	 2012	 1901	 1864	 1729	 1600	 1471	 1439	 1408	 1404	 1427	 1448	 1452	 1528	 1553	 1581	 1555	 1568	 1535	 1528	 1492	 1439	 1350	 1200	 1063	920.7	837.3	749.6	631.4	508.0	439.2	387.0	311.7	250.6	202.5	160.5	149.2	442.9
465.0	435.4	492.2	659.4	740.3	957.6	 1189	 1282	 1317	 1427	 1524	 1648	 1650	 1810	 1808	 1882	 1901	 1790	 1658	 1496	 1348	 1320	 1330	 1326	 1356	 1349	 1386	 1425	 1455	 1437	 1454	 1446	 1434	 1424	 1422	 1382	 1283	 1158	 1047	903.4	806.3	750.4	665.2	541.3	459.5	401.2	343.0	282.3	228.8	186.0	143.9	129.2
470.0	385.1	532.4	591.8	837.9	877.4	 1121	 1221	 1228	 1355	 1322	 1511	 1532	 1589	 1704	 1743	 1795	 1697	 1511	 1402	 1297	 1231	 1228	 1224	 1221	 1202	 1280	 1301	 1323	 1337	 1351	 1332	 1342	 1354	 1331	 1313	 1191	 1102	989.3	887.4	793.4	714.4	671.0	583.4	469.9	416.7	357.8	302.0	255.5	193.9	153.4	119.9
475.0	369.9	477.9	619.1	638.0	855.6	 1013	 1067	 1130	 1266	 1292	 1300	 1447	 1509	 1571	 1652	 1685	 1548	 1438	 1353	 1239	 1164	 1153	 1100	 1113	 1140	 1160	 1156	 1223	 1203	 1230	 1232	 1228	 1252	 1208	 1193	 1120	 1040	940.8	847.5	763.3	670.2	636.0	587.8	494.3	415.6	356.3	312.6	258.0	211.0	171.3	129.7
480.0	346.2	461.0	605.5	606.4	833.5	874.5	 1085	 1032	 1147	 1182	 1249	 1338	 1428	 1491	 1505	 1600	 1536	 1400	 1246	 1156	 1041	 1063	 1030	 1056	 1058	 1056	 1070	 1103	 1112	 1155	 1115	 1139	 1111	 1145	 1128	 1054	983.9	890.9	818.3	732.4	661.7	603.2	555.3	504.2	432.8	372.7	314.5	273.2	221.1	182.0	144.6
485.0	339.9	320.7	580.6	598.7	644.7	880.2	901.7	 1054	 1052	 1088	 1130	 1162	 1431	 1431	 1417	 1487	 1398	 1249	 1200	 1101	 1033	964.1	976.1	954.5	994.2	969.4	 1013	 1045	 1042	 1013	 1039	 1057	 1065	 1083	 1037	 1017	914.6	846.1	783.2	709.7	637.2	571.5	525.4	501.8	451.4	389.7	326.7	270.2	233.3	206.2	157.5
490.0	246.7	417.2	422.8	575.7	715.7	814.5	799.0	904.1	993.9	 1075	 1157	 1205	 1306	 1372	 1393	 1372	 1333	 1237	 1143	 1051	942.9	899.3	903.3	911.2	887.8	927.4	927.3	963.1	965.0	978.6	982.9	975.9	 1005	987.5	977.2	931.0	866.3	800.3	738.5	673.1	608.6	562.9	508.2	462.2	446.6	402.5	321.1	280.8	241.5	204.1	174.2
495.0	251.2	323.2	529.5	535.2	628.2	736.3	882.7	861.4	886.7	998.7	 1020	 1150	 1135	 1306	 1353	 1354	 1226	 1172	 1071	979.0	889.6	875.7	850.7	840.9	821.6	848.7	850.1	864.2	899.1	870.3	889.8	907.9	925.0	941.6	913.9	889.0	822.6	774.4	715.3	654.2	595.8	547.9	487.6	452.6	431.1	401.7	341.3	284.0	245.3	213.1	183.1
500.0	247.0	313.0	421.8	489.2	500.7	639.9	807.9	817.7	871.1	925.4	 1004	 1066	 1099	 1201	 1243	 1190	 1187	 1103	 1018	896.0	857.6	815.9	800.9	781.4	759.4	773.6	789.5	787.0	819.2	836.5	827.2	835.9	840.4	870.6	859.5	812.9	755.3	729.2	632.0	609.8	552.6	521.7	477.2	437.3	398.0	379.9	355.0	291.0	246.8	219.0	185.1
505.0	249.9	317.9	334.8	413.6	569.7	661.9	756.4	799.7	775.8	795.7	907.1	950.0	 1007	 1105	 1156	 1189	 1073	 1001	934.6	853.9	772.3	758.8	720.9	731.1	715.1	721.8	731.9	741.6	747.9	743.2	731.7	773.2	770.2	798.3	774.8	743.7	723.9	659.3	607.9	582.5	528.3	481.1	449.1	411.5	380.7	349.7	336.5	299.1	249.7	214.1	192.9
510.0	292.5	282.7	317.2	321.8	513.8	512.4	648.0	633.8	742.0	719.5	814.0	863.6	905.0	972.0	 1106	 1077	993.1	935.3	866.9	766.4	719.2	673.4	637.2	658.5	645.2	636.4	654.6	645.7	667.3	661.0	670.8	694.8	699.1	705.9	717.0	671.4	649.3	606.1	550.5	543.0	500.5	461.5	423.6	388.4	355.4	328.0	312.6	308.6	259.3	220.9	191.3
515.0	196.9	335.6	311.1	371.3	486.1	515.6	570.7	605.8	663.9	687.8	731.0	806.4	876.7	895.5	964.4	989.7	912.3	849.7	776.1	722.3	666.3	621.4	604.1	600.4	598.9	605.5	592.2	600.2	589.2	609.7	617.8	625.3	636.2	644.0	650.0	630.5	589.0	553.6	520.5	494.0	461.7	435.7	394.4	368.7	342.5	305.0	290.3	278.8	253.8	223.9	185.9
520.0	257.5	243.3	223.6	360.1	418.4	480.7	519.5	523.3	628.2	659.7	701.7	746.4	777.1	779.3	887.3	885.2	829.0	758.5	723.4	646.5	601.8	580.6	557.6	544.7	529.9	544.8	534.5	547.3	533.7	548.1	553.0	580.7	550.3	582.4	585.8	568.3	536.4	503.2	464.9	443.5	416.0	386.1	364.6	344.9	305.0	283.6	273.2	249.6	237.0	222.5	187.4
525.0	122.7	232.7	293.7	322.9	342.4	409.2	445.3	556.3	540.4	589.1	626.1	630.1	688.1	747.4	776.7	786.8	751.2	717.0	667.4	603.6	558.4	531.3	496.5	504.3	481.6	485.3	487.2	477.8	480.3	482.0	497.2	509.6	509.1	538.8	528.8	513.3	485.5	454.4	449.0	404.5	387.2	352.1	336.1	318.0	299.5	263.0	261.5	233.3	220.8	215.0	189.8
530.0	184.9	253.8	228.5	276.9	379.2	344.0	449.1	498.5	489.3	550.3	596.8	632.1	651.1	681.7	699.1	692.4	709.8	651.4	586.3	546.7	479.1	472.5	455.1	456.7	447.7	433.2	431.6	435.6	436.0	433.5	436.1	449.0	469.8	470.5	461.9	462.0	427.7	414.7	386.9	358.2	349.5	320.6	323.3	292.0	274.1	246.8	238.6	219.6	204.3	193.3	191.8
535.0	196.6	187.3	165.9	278.2	283.4	358.1	336.6	374.8	454.8	509.1	458.5	547.1	563.4	650.8	634.9	624.0	600.9	582.0	533.1	486.7	459.1	429.4	400.7	405.1	393.7	390.3	385.5	389.1	385.4	390.5	414.4	387.9	424.6	426.1	426.8	424.8	393.2	356.5	351.1	327.3	312.6	291.8	276.1	264.6	244.8	227.0	214.5	206.5	193.2	175.1	170.6
540.0	141.0	189.1	172.6	254.2	328.5	334.2	337.3	346.0	375.6	443.7	473.3	467.9	508.1	557.9	583.5	603.8	556.6	517.8	495.7	424.4	407.9	383.5	367.2	361.4	352.7	339.9	343.1	352.1	353.0	354.2	353.4	356.0	368.5	378.0	375.3	373.7	348.2	323.7	310.5	298.1	273.5	266.2	246.6	236.6	218.7	205.8	195.2	185.4	173.0	158.9	148.5
545.0	97.01	161.8	191.0	227.1	300.2	270.2	331.8	312.1	326.5	324.6	427.1	397.2	470.7	504.6	544.4	638.7	517.7	489.4	425.1	392.9	360.2	334.1	340.3	333.5	311.4	298.9	306.7	313.7	319.6	306.0	303.8	311.9	316.9	325.9	337.8	334.2	327.2	303.6	289.2	259.1	251.3	235.1	220.4	214.2	200.3	187.3	183.8	175.4	159.3	142.0	141.4
550.0	79.61	133.9	152.2	191.0	202.7	282.7	307.0	301.5	313.2	323.5	410.0	405.4	416.0	437.6	476.9	791.6	516.7	405.7	383.3	359.2	319.7	301.1	292.0	301.2	292.9	278.2	294.5	269.9	287.8	274.2	287.3	290.0	303.0	308.4	303.2	294.1	291.6	267.8	254.8	241.3	222.2	221.0	204.6	195.5	185.2	176.6	162.7	147.8	147.4	143.1	125.8
