Sample:	'SLABO1-5-5-320
File name:	2N6.FD3
Run Date:	15:28:21, 08/17/2022
Operator:	Administrator
Comment:	'

Instrument
Model:	F-7000 FL Spectrophotometer
Serial Number:	2354-007
ROM Version:	5J14000 06

Instrument Parameters
Measurement type:	3-D Scan
Data mode:	Fluorescence
EX  Start WL:	200.0 nm
EX  End WL:	450.0 nm
EX Sampling Interval:	5.0 nm
EM  Start WL:	280.0 nm
EM  End WL:	550.0 nm
EM Sampling Interval:	5.0 nm
Scan speed:	12000 nm/min
EX Slit:	5.0 nm
EM Slit:	5.0 nm
PMT Voltage:	700 V
Response:	Auto 
Corrected spectra:	Off
Shutter control:	On
Contour interval:	25.000

Peak integration
Integration method:	Rectangular
Sensitivity:	1
Threshold:	1.000

Peaks
No.	ApexEX/EM(nm)	Height(Data)
1	205.0/315.0	627.6
2	205.0/335.0	570.8
3	205.0/370.0	629.5
4	210.0/310.0	567.0
5	210.0/320.0	562.5
6	215.0/305.0	531.3
7	215.0/340.0	691.5
8	220.0/315.0	545.1
9	225.0/305.0	560.5
10	225.0/380.0	 1294
11	230.0/330.0	722.7
12	245.0/410.0	 2185
13	265.0/445.0	 2556
14	270.0/425.0	 2606
15	270.0/435.0	 2618
16	275.0/305.0	637.3
17	275.0/440.0	 2625
18	280.0/310.0	791.7
19	285.0/315.0	804.7
20	290.0/320.0	736.0
21	295.0/330.0	674.7
22	300.0/335.0	656.2
23	305.0/340.0	687.7
24	310.0/345.0	682.1
25	315.0/425.0	 1981
26	320.0/420.0	 1987
27	325.0/415.0	 2000
28	325.0/430.0	 1973
29	330.0/420.0	 1989
30	370.0/300.0	10.11
31	395.0/310.0	7.729
32	405.0/300.0	6.477
33	420.0/305.0	5.698
34	425.0/340.0	7.110
35	435.0/345.0	7.154
36	445.0/355.0	7.466

Data Points
	200.0	205.0	210.0	215.0	220.0	225.0	230.0	235.0	240.0	245.0	250.0	255.0	260.0	265.0	270.0	275.0	280.0	285.0	290.0	295.0	300.0	305.0	310.0	315.0	320.0	325.0	330.0	335.0	340.0	345.0	350.0	355.0	360.0	365.0	370.0	375.0	380.0	385.0	390.0	395.0	400.0	405.0	410.0	415.0	420.0	425.0	430.0	435.0	440.0	445.0	450.0
280.0	52.46	37.64	20.37	59.80	41.33	19.03	30.33	16.13	13.60	28.03	38.10	41.77	34.82	22.51	14.57	 2145	9999.9	 3882	96.46	20.54	14.97	22.25	16.07	12.39	12.07	10.02	10.25	7.450	7.473	6.189	7.561	5.235	6.766	6.469	5.114	3.320	4.892	3.739	4.106	4.345	3.485	3.741	2.485	1.936	1.897	1.075	2.452	2.608	1.465	1.134	1.445
285.0	139.6	146.2	87.61	99.09	109.1	125.1	70.94	38.57	28.28	66.87	97.31	103.5	127.8	92.49	49.51	176.3	 4906	9999.9	9999.9	660.1	32.94	21.04	21.64	16.81	14.19	11.85	10.64	11.30	9.332	8.379	8.366	8.250	6.111	8.410	5.941	7.377	5.005	4.924	4.268	4.649	3.465	4.030	2.657	1.953	1.826	2.452	2.318	2.734	2.094	1.745	1.814
290.0	412.0	269.6	303.3	231.3	242.0	238.8	162.7	86.45	61.82	112.2	127.3	129.5	139.1	253.1	133.0	103.3	394.1	9999.9	9999.9	9999.9	875.6	43.23	31.71	22.52	21.14	14.46	14.35	11.53	9.607	9.165	7.597	7.053	6.528	6.085	6.863	7.385	5.618	5.307	4.814	4.431	4.193	3.532	3.998	2.707	3.337	2.704	3.210	2.558	3.089	3.092	2.048
295.0	394.3	415.0	303.2	330.9	411.8	317.8	207.3	118.7	92.69	114.2	171.0	160.1	140.7	264.1	373.7	199.4	180.7	740.3	9999.9	9999.9	9999.9	 1076	50.45	36.92	32.27	20.59	18.93	13.35	12.17	11.14	11.16	10.81	10.62	7.515	9.992	6.743	5.918	7.385	5.190	5.490	4.047	3.880	4.505	2.966	3.689	2.692	3.239	3.359	3.299	2.251	3.642
300.0	438.7	457.6	412.8	449.1	495.0	406.3	310.0	162.1	139.5	141.7	157.7	183.3	177.5	208.3	425.9	471.4	244.8	220.7	762.7	9999.9	9999.9	9999.9	 1129	58.85	47.59	34.45	27.92	20.55	16.77	14.73	9.518	10.99	9.738	7.429	10.11	8.048	6.823	7.426	5.124	5.525	4.559	6.477	5.384	3.929	3.491	3.410	3.179	3.474	3.124	4.173	3.424
305.0	633.9	535.7	423.4	531.3	479.6	560.5	382.2	233.1	179.4	177.8	208.6	204.7	244.1	233.5	322.6	637.3	520.4	258.1	216.7	757.6	9999.9	9999.9	9999.9	 1288	64.18	47.06	43.33	30.57	23.65	19.06	14.06	12.91	10.58	11.39	9.837	8.560	6.313	6.678	6.947	6.331	5.418	4.553	5.100	5.314	5.698	4.256	3.640	3.601	4.689	4.291	4.292
310.0	550.2	477.6	567.0	515.1	530.2	488.8	366.1	273.5	216.0	198.2	265.0	242.4	232.8	301.6	333.4	470.0	791.7	491.2	218.5	197.1	755.5	9999.9	9999.9	9999.9	 1303	73.31	52.33	40.79	32.10	22.41	18.83	15.80	12.58	11.43	9.040	9.544	8.698	7.358	5.179	7.729	4.744	6.732	5.816	5.619	5.132	3.353	4.711	3.859	4.243	4.877	3.318
315.0	549.6	627.6	442.6	451.8	545.1	495.4	404.5	293.7	264.0	239.4	264.6	283.0	282.6	349.0	367.6	429.4	564.7	804.7	371.0	205.3	160.7	746.9	9999.9	9999.9	9999.9	 1162	70.49	56.87	48.53	30.19	26.63	19.60	15.16	14.24	11.89	9.243	9.829	8.570	8.259	5.703	6.624	5.866	5.755	5.687	5.666	5.483	4.703	4.344	4.210	4.157	3.800
320.0	478.5	513.2	562.5	449.3	540.5	544.3	514.9	346.1	281.5	268.0	278.5	318.4	367.8	377.8	420.6	463.3	492.4	617.8	736.0	293.8	166.2	174.5	768.0	9999.9	9999.9	9999.9	 1120	85.30	65.57	49.63	34.11	31.04	16.92	16.85	16.60	12.92	10.59	10.63	7.789	7.698	6.039	6.519	7.065	5.105	4.812	5.540	4.856	3.179	4.497	4.975	4.611
325.0	448.8	422.4	488.5	472.9	542.3	627.6	628.6	463.5	368.7	347.4	348.9	364.9	333.5	374.6	467.1	524.4	529.2	486.5	644.3	631.0	249.9	168.5	170.0	778.1	9999.9	9999.9	9999.9	 1210	96.87	63.42	49.29	33.84	27.15	18.89	17.79	13.97	12.38	11.50	7.480	8.212	6.591	6.343	7.626	6.498	4.172	5.463	5.361	5.710	3.747	4.742	4.169
330.0	473.1	523.2	443.0	422.2	556.5	679.0	722.7	559.1	439.8	387.1	375.5	383.1	398.1	438.7	475.9	516.8	557.2	532.6	496.1	674.7	542.1	222.6	172.0	184.5	779.0	9999.9	9999.9	9999.9	 1200	95.48	66.59	49.85	37.28	24.21	21.12	16.34	13.52	10.18	9.518	8.402	7.196	6.450	7.400	6.413	5.441	5.119	5.343	5.326	5.205	5.515	4.379
335.0	397.5	570.8	426.5	414.2	541.5	715.2	665.0	608.5	498.7	426.4	370.8	384.1	418.0	452.7	516.6	580.5	639.0	625.3	520.9	497.6	656.2	460.9	237.0	184.5	203.5	794.0	9999.9	9999.9	9999.9	 1235	102.1	67.97	51.26	41.11	26.14	22.60	19.24	13.89	10.74	10.76	9.302	8.308	7.051	6.424	5.694	4.964	5.695	4.928	4.045	5.572	5.365
340.0	374.1	508.6	459.2	691.5	590.5	724.2	759.7	687.9	550.3	544.4	456.0	459.3	479.4	486.5	579.2	587.0	657.0	652.7	618.6	518.1	482.9	687.7	443.9	242.3	206.2	225.8	811.2	9999.9	9999.9	9999.9	 1410	103.9	78.26	49.82	40.10	24.27	18.92	16.40	11.09	10.55	9.345	7.011	7.742	6.050	6.969	7.110	6.634	5.151	6.049	5.272	5.158
345.0	419.3	401.3	509.6	519.4	591.8	798.9	840.3	758.8	601.2	596.7	535.7	507.0	553.5	576.8	591.7	649.4	710.6	758.7	662.2	579.8	504.6	567.9	682.1	412.2	301.2	265.7	265.8	829.0	9999.9	9999.9	9999.9	 1558	106.8	76.33	55.14	42.07	27.27	19.57	16.46	11.94	11.92	8.240	8.019	6.127	7.144	5.601	6.013	7.154	6.185	6.334	5.955
350.0	394.8	555.8	419.4	494.8	684.4	767.4	898.6	820.8	687.5	656.5	599.1	601.3	629.6	655.3	652.2	748.4	813.4	776.2	732.3	668.1	596.6	539.9	653.0	739.3	453.1	370.5	327.2	307.3	861.1	9999.9	9999.9	9999.9	 1586	113.8	80.28	51.11	39.79	23.94	20.09	14.42	11.58	9.902	7.174	7.347	6.857	7.610	4.869	5.283	4.567	6.416	5.502
355.0	453.6	454.8	541.6	530.3	610.9	797.3	896.9	862.8	832.3	702.8	749.1	686.0	721.7	751.7	811.9	891.3	933.3	890.8	856.4	781.1	716.9	657.1	634.8	792.6	793.3	521.9	436.8	400.2	346.9	894.7	9999.9	9999.9	9999.9	 1655	111.7	76.16	53.57	37.39	23.35	18.07	12.78	11.28	8.036	7.941	7.208	6.388	5.765	6.996	7.444	7.466	5.792
360.0	349.7	483.8	523.2	530.2	661.6	740.0	925.1	953.8	923.6	876.5	854.3	866.5	861.6	909.8	941.1	 1021	 1010	992.3	951.3	905.5	816.0	793.3	774.4	792.1	961.7	826.7	604.1	521.2	427.4	372.0	898.3	9999.9	9999.9	9999.9	 1545	108.4	74.01	50.51	36.96	23.75	16.33	12.81	9.450	9.173	8.454	7.893	5.699	6.811	6.450	6.303	6.535
365.0	404.5	546.6	605.1	565.2	800.1	859.4	984.0	965.6	980.8	995.0	 1017	912.5	994.7	 1130	 1062	 1114	 1188	 1085	 1077	 1000	970.7	945.4	907.4	918.1	943.6	 1121	881.4	682.2	580.7	458.9	378.4	894.3	9999.9	9999.9	9999.9	 1694	105.4	71.44	44.75	33.66	22.17	15.69	12.02	9.505	8.962	7.124	6.872	7.638	7.309	6.275	5.815
370.0	373.3	629.5	580.5	529.5	817.4	851.6	 1064	 1130	 1137	 1095	 1119	 1159	 1185	 1160	 1281	 1333	 1243	 1246	 1165	 1153	 1110	 1086	 1112	 1076	 1039	 1120	 1205	936.4	720.2	592.3	472.0	402.2	887.2	9999.9	9999.9	9999.9	 1668	97.57	68.71	45.24	32.89	23.15	16.76	11.56	11.05	7.337	8.870	7.012	6.545	8.024	6.610
375.0	467.6	480.7	642.4	720.0	794.1	 1141	 1164	 1255	 1162	 1222	 1259	 1304	 1341	 1409	 1419	 1531	 1431	 1414	 1349	 1274	 1217	 1194	 1240	 1249	 1216	 1202	 1257	 1233	937.7	761.2	616.5	481.8	402.3	899.0	9999.9	9999.9	9999.9	 1765	94.08	64.48	42.24	30.37	21.03	14.54	12.20	10.80	8.086	6.624	7.452	7.353	7.815
380.0	533.3	612.5	618.4	748.3	 1033	 1294	 1252	 1281	 1416	 1466	 1447	 1447	 1497	 1584	 1586	 1684	 1605	 1507	 1474	 1371	 1340	 1369	 1365	 1381	 1367	 1335	 1309	 1382	 1243	951.4	777.7	610.7	470.2	402.0	882.4	9999.9	9999.9	9999.9	 1571	87.50	59.26	38.18	30.34	19.76	14.64	11.82	9.965	9.707	7.621	8.844	6.957
385.0	486.6	492.4	691.3	777.6	955.4	 1155	 1355	 1390	 1487	 1491	 1510	 1546	 1577	 1704	 1729	 1755	 1727	 1612	 1617	 1498	 1469	 1481	 1503	 1496	 1503	 1506	 1438	 1412	 1457	 1257	937.9	763.8	620.6	488.9	390.8	883.6	9999.9	9999.9	9999.9	 1626	82.49	53.90	38.84	25.46	19.16	12.80	12.32	10.28	8.443	7.381	6.435
390.0	461.0	609.9	763.2	731.8	983.1	 1248	 1494	 1493	 1505	 1611	 1628	 1679	 1771	 1850	 1895	 1862	 1842	 1870	 1656	 1611	 1601	 1581	 1635	 1605	 1651	 1632	 1603	 1512	 1490	 1470	 1172	943.4	764.3	611.7	462.7	388.7	881.6	9999.9	9999.9	9999.9	 1552	78.99	53.30	36.76	27.99	17.49	14.51	11.02	10.57	10.09	7.849
395.0	510.3	553.7	835.2	936.6	 1088	 1298	 1453	 1536	 1680	 1796	 1819	 1835	 1964	 1966	 2094	 2015	 1993	 1864	 1783	 1709	 1682	 1707	 1706	 1747	 1709	 1745	 1712	 1664	 1561	 1533	 1455	 1145	925.8	776.7	611.0	460.3	363.8	871.1	9999.9	9999.9	9999.9	 1565	75.09	49.99	34.31	24.87	18.01	13.63	10.80	11.60	9.436
400.0	374.7	593.4	804.3	934.5	 1228	 1497	 1564	 1689	 1713	 1876	 1966	 1882	 1983	 2107	 2196	 2159	 2137	 2047	 1905	 1786	 1772	 1782	 1841	 1832	 1851	 1839	 1834	 1779	 1700	 1601	 1528	 1392	 1127	910.4	742.0	563.9	434.6	345.1	854.2	9999.9	9999.9	9999.9	 1352	64.76	46.35	30.37	23.20	17.25	15.11	11.91	10.05
405.0	370.4	745.9	900.5	985.4	 1127	 1584	 1729	 1735	 1871	 2006	 1930	 2102	 2100	 2198	 2319	 2303	 2215	 2106	 2008	 1875	 1891	 1806	 1844	 1894	 1925	 1898	 1876	 1890	 1780	 1665	 1552	 1524	 1358	 1074	904.5	690.1	529.2	395.0	327.7	832.4	9999.9	9999.9	9999.9	 1228	67.42	44.06	34.19	24.76	15.41	15.15	10.82
410.0	529.8	667.6	843.6	959.7	 1346	 1506	 1800	 1772	 1998	 2185	 2026	 2159	 2203	 2317	 2424	 2394	 2288	 2154	 2101	 1937	 1917	 1866	 1926	 1958	 1982	 1968	 1960	 1929	 1848	 1760	 1655	 1535	 1518	 1277	 1001	825.1	642.7	483.3	367.3	309.4	811.4	9999.9	9999.9	9999.9	 1107	61.54	41.06	31.10	22.88	16.03	12.92
415.0	467.1	821.1	810.1	 1033	 1120	 1476	 1840	 1852	 1881	 2068	 2055	 2117	 2296	 2406	 2496	 2470	 2393	 2272	 2112	 1985	 1917	 1901	 1922	 1963	 1984	 2000	 1962	 1946	 1889	 1809	 1713	 1579	 1519	 1492	 1212	951.1	773.6	591.6	462.3	338.2	282.6	811.6	9999.9	9999.9	9999.9	 1113	57.44	37.96	28.61	21.16	17.20
420.0	529.6	743.7	978.5	986.1	 1252	 1530	 1885	 1885	 1929	 2127	 2105	 2246	 2393	 2437	 2518	 2466	 2437	 2280	 2146	 2062	 1967	 1915	 1941	 1953	 1987	 1946	 1989	 1987	 1949	 1875	 1748	 1624	 1568	 1535	 1370	 1089	866.5	693.2	550.1	416.1	308.0	272.9	806.1	9999.9	9999.9	9999.9	 1013	55.80	39.82	26.36	19.10
425.0	473.8	624.9	878.9	 1029	 1188	 1509	 1847	 1777	 1882	 2107	 2196	 2338	 2429	 2471	 2606	 2538	 2497	 2319	 2146	 2023	 1967	 1902	 1909	 1981	 1979	 1945	 1974	 1945	 1889	 1869	 1795	 1710	 1607	 1523	 1449	 1275	982.3	793.6	627.2	490.6	375.9	276.3	252.9	790.2	 9635	9999.9	9999.9	863.9	51.92	36.11	24.84
430.0	470.2	750.0	833.5	957.7	 1360	 1608	 1858	 1768	 2033	 2011	 2197	 2285	 2299	 2548	 2565	 2547	 2498	 2329	 2228	 1998	 1967	 1899	 1892	 1891	 1928	 1973	 1958	 1942	 1904	 1854	 1799	 1708	 1654	 1553	 1438	 1390	 1105	885.5	722.6	560.2	449.4	342.1	263.3	241.9	754.6	 9153	9999.9	9999.9	771.3	52.41	37.35
435.0	503.3	567.3	891.1	849.8	 1313	 1486	 1707	 1837	 1993	 2033	 2152	 2313	 2323	 2521	 2618	 2614	 2557	 2334	 2181	 1986	 1899	 1885	 1856	 1907	 1947	 1897	 1915	 1940	 1897	 1858	 1810	 1735	 1670	 1604	 1462	 1345	 1233	959.8	781.1	639.9	511.3	402.6	316.9	265.6	237.9	720.6	 8790	9999.9	9999.9	776.1	52.55
440.0	342.7	605.9	758.8	986.2	 1217	 1572	 1629	 1818	 1760	 2042	 2277	 2232	 2391	 2486	 2610	 2625	 2549	 2366	 2177	 1957	 1905	 1850	 1875	 1875	 1869	 1867	 1910	 1877	 1843	 1834	 1785	 1717	 1689	 1603	 1495	 1366	 1241	 1091	863.4	706.2	574.8	473.5	381.4	306.4	245.5	235.8	693.9	 8706	9999.9	9999.9	682.9
445.0	488.9	538.6	970.9	972.0	 1177	 1521	 1693	 1738	 1873	 2141	 2088	 2243	 2279	 2556	 2490	 2582	 2429	 2286	 2126	 1955	 1861	 1814	 1776	 1750	 1837	 1796	 1809	 1821	 1777	 1734	 1724	 1709	 1643	 1580	 1508	 1387	 1200	 1111	955.5	755.9	637.2	532.9	436.3	347.0	282.4	230.5	222.2	688.7	 8849	9999.9	9999.9
450.0	372.5	607.5	857.3	838.1	979.3	 1464	 1591	 1728	 1714	 1928	 2111	 2073	 2330	 2376	 2524	 2500	 2448	 2266	 2123	 1949	 1839	 1721	 1721	 1730	 1759	 1712	 1747	 1702	 1737	 1702	 1668	 1658	 1611	 1561	 1485	 1352	 1239	 1091	988.3	836.9	687.2	576.7	469.7	400.3	326.4	270.8	221.7	210.4	684.2	 8347	9999.9
455.0	416.1	564.0	818.0	791.0	940.0	 1219	 1444	 1565	 1690	 1930	 1974	 2166	 2205	 2295	 2448	 2425	 2400	 2260	 2022	 1902	 1789	 1678	 1665	 1635	 1664	 1641	 1652	 1658	 1644	 1607	 1617	 1593	 1570	 1536	 1456	 1367	 1217	 1069	972.4	883.0	740.4	619.0	522.0	436.9	375.2	314.8	247.0	207.3	204.0	648.0	 8256
460.0	398.9	442.5	714.3	766.8	958.6	 1339	 1411	 1546	 1661	 1806	 1753	 2008	 2147	 2243	 2359	 2364	 2349	 2193	 1996	 1800	 1709	 1644	 1575	 1543	 1561	 1535	 1545	 1580	 1546	 1547	 1555	 1518	 1530	 1480	 1417	 1293	 1197	 1067	950.4	871.2	770.9	640.1	550.1	474.6	411.9	345.6	291.1	239.1	203.0	190.9	640.3
465.0	366.6	489.3	570.6	745.9	978.7	 1095	 1355	 1428	 1468	 1654	 1804	 1922	 1988	 2128	 2255	 2286	 2196	 2058	 1856	 1753	 1602	 1561	 1542	 1444	 1459	 1453	 1449	 1435	 1466	 1424	 1424	 1425	 1430	 1384	 1371	 1262	 1151	 1038	943.5	841.1	784.6	700.6	575.7	500.0	437.3	361.4	314.1	267.4	213.9	180.2	183.6
470.0	240.9	545.1	632.8	798.4	796.3	 1203	 1246	 1356	 1502	 1608	 1637	 1869	 1951	 1998	 2170	 2212	 2038	 1965	 1791	 1660	 1508	 1433	 1443	 1391	 1378	 1354	 1334	 1372	 1355	 1336	 1338	 1347	 1349	 1325	 1297	 1221	 1130	 1013	922.0	809.9	738.6	698.3	607.0	515.7	452.9	399.4	341.8	293.3	252.4	207.8	170.4
475.0	377.4	434.4	624.0	628.6	843.3	969.4	 1092	 1327	 1393	 1405	 1586	 1683	 1845	 1944	 2010	 2119	 2014	 1868	 1643	 1503	 1439	 1361	 1343	 1326	 1288	 1265	 1246	 1240	 1241	 1203	 1244	 1241	 1227	 1236	 1214	 1146	 1062	958.3	880.1	790.6	706.6	645.4	629.3	535.4	467.1	410.7	344.5	312.1	255.2	225.2	188.6
480.0	302.7	427.1	501.3	566.0	851.7	891.8	 1038	 1207	 1273	 1385	 1502	 1569	 1756	 1777	 1863	 1935	 1902	 1760	 1651	 1444	 1350	 1283	 1251	 1227	 1196	 1175	 1171	 1167	 1141	 1133	 1178	 1142	 1141	 1174	 1146	 1073	982.3	922.1	842.0	759.3	704.3	623.8	586.0	559.0	471.4	412.8	361.8	331.0	281.0	249.8	203.9
485.0	309.9	424.1	529.0	554.7	725.7	911.6	 1100	 1173	 1146	 1266	 1404	 1442	 1608	 1750	 1855	 1817	 1803	 1682	 1564	 1398	 1325	 1217	 1200	 1155	 1147	 1111	 1119	 1094	 1093	 1079	 1078	 1077	 1104	 1074	 1073	 1042	949.1	880.0	821.8	731.7	685.0	643.7	563.0	556.6	497.7	434.9	393.5	345.9	309.8	265.8	234.7
490.0	259.2	453.3	463.8	559.8	597.8	853.6	 1016	 1085	 1155	 1248	 1295	 1415	 1518	 1598	 1779	 1776	 1731	 1612	 1498	 1377	 1252	 1188	 1151	 1073	 1105	 1049	 1025	 1027	 1037	 1017	 1005	 1014	 1026	 1029	995.3	974.9	914.4	846.2	762.5	715.4	658.2	621.0	569.3	524.6	504.0	447.9	386.7	355.7	307.0	289.2	250.4
495.0	238.2	405.3	402.6	533.7	652.9	752.7	876.2	 1076	 1100	 1174	 1170	 1258	 1446	 1590	 1670	 1661	 1608	 1557	 1406	 1297	 1187	 1135	 1056	 1030	 1025	980.5	966.5	953.8	942.1	946.3	963.4	969.8	964.5	961.5	949.7	910.7	858.7	795.0	735.8	692.7	627.7	598.0	547.8	496.6	478.0	463.3	395.1	363.5	323.9	290.9	256.4
500.0	159.7	393.1	415.6	449.3	581.0	801.0	885.3	934.8	 1050	 1067	 1130	 1228	 1360	 1470	 1600	 1607	 1539	 1454	 1351	 1219	 1102	 1053	 1018	962.6	963.3	909.9	908.2	896.9	852.3	880.6	879.6	897.5	884.9	911.6	870.0	839.5	796.7	743.6	703.9	652.9	593.8	565.0	514.8	500.5	451.0	425.6	410.4	365.3	328.6	294.6	258.5
505.0	235.5	299.2	389.6	398.9	552.9	643.8	816.0	831.5	950.4	 1002	 1077	 1195	 1241	 1335	 1448	 1487	 1414	 1354	 1255	 1143	 1069	996.7	949.9	900.8	869.4	859.0	827.4	816.7	822.8	813.7	785.6	831.9	840.4	840.6	822.7	782.1	767.3	694.5	648.0	609.6	570.5	521.4	481.0	462.5	434.9	411.3	395.9	370.5	338.2	296.5	264.3
510.0	219.7	238.0	296.9	409.4	549.1	763.3	720.8	797.8	908.3	924.1	989.2	 1012	 1185	 1272	 1373	 1389	 1351	 1247	 1176	 1035	968.6	921.9	872.2	840.7	809.1	778.3	770.2	752.1	745.4	743.0	736.2	725.3	764.9	753.0	739.2	722.0	679.5	642.0	601.3	557.5	518.9	493.6	480.7	444.3	414.6	395.6	374.4	362.6	328.8	290.9	258.9
515.0	218.9	214.2	350.0	423.0	529.5	584.6	698.8	705.8	823.1	831.3	934.1	941.8	 1093	 1176	 1213	 1220	 1180	 1162	 1074	945.9	863.1	836.6	805.5	779.6	731.9	711.2	703.7	690.6	712.5	679.8	675.1	663.9	685.5	689.9	689.3	674.7	621.4	596.9	549.5	528.4	485.9	454.6	430.2	407.1	384.8	361.6	350.1	336.9	316.0	291.9	255.6
520.0	199.5	253.2	225.5	337.4	507.2	577.3	559.9	679.4	638.9	766.4	868.4	830.7	948.9	 1078	 1152	 1134	 1098	 1064	973.2	866.9	830.3	790.3	762.4	700.8	678.6	659.5	642.5	631.2	619.8	615.0	609.4	609.5	626.0	646.2	629.7	601.1	569.4	533.0	502.6	471.1	437.7	430.5	406.6	376.4	359.0	332.6	324.4	300.7	300.5	279.4	251.7
525.0	154.2	190.0	203.9	317.1	455.2	486.0	560.5	578.0	623.2	686.1	779.1	795.2	879.0	932.3	 1083	992.3	 1017	980.0	877.5	821.3	779.6	728.9	665.3	655.9	627.7	597.6	587.2	561.3	553.1	550.8	543.0	553.1	559.3	578.2	552.6	546.6	522.1	495.7	476.1	430.7	421.2	385.7	369.4	350.3	339.9	310.6	295.5	277.4	269.0	278.6	249.9
530.0	171.9	274.8	278.5	303.9	312.3	475.0	539.1	546.4	599.5	606.7	693.8	735.7	771.8	860.1	928.6	915.1	917.6	916.7	835.4	737.3	690.9	658.3	620.6	594.2	557.6	547.4	528.8	512.4	515.2	505.3	498.9	510.6	509.8	513.2	501.9	489.1	466.6	460.4	413.1	403.8	367.0	353.1	338.3	327.6	304.1	293.1	275.0	268.2	251.1	239.9	242.2
535.0	131.3	222.0	189.3	241.8	339.1	302.6	528.7	499.7	542.8	579.6	623.8	684.6	739.2	737.0	821.2	876.8	822.8	791.0	738.6	680.1	596.0	619.7	554.1	550.2	506.4	478.9	475.0	468.7	454.7	455.5	453.8	457.0	450.8	446.1	452.7	434.9	411.1	408.4	374.0	350.6	335.3	321.7	305.4	286.6	276.2	267.7	259.3	239.2	230.1	223.3	213.9
540.0	147.1	111.6	252.2	231.7	377.4	342.0	470.3	428.8	503.5	503.9	548.5	570.4	621.6	698.1	788.6	782.8	747.7	710.9	670.0	608.1	565.1	544.7	503.3	496.9	467.8	442.9	425.3	416.6	410.9	406.1	406.8	400.6	401.3	402.1	399.9	398.3	378.1	362.7	328.9	316.2	306.3	300.4	280.7	264.2	248.5	231.3	228.9	215.8	209.6	202.6	194.1
545.0	172.4	169.4	166.9	191.4	287.2	350.1	378.8	381.6	451.2	509.9	507.1	521.4	529.3	585.3	741.8	839.8	666.8	639.1	601.0	530.9	514.0	489.2	455.9	434.1	424.9	400.2	404.0	368.3	368.6	371.8	364.1	360.0	356.2	356.5	362.1	351.3	355.5	321.7	298.3	283.9	273.0	264.0	254.4	238.6	223.2	215.6	215.8	199.6	186.0	182.5	179.5
550.0	93.83	126.3	178.8	222.6	219.6	282.3	326.0	368.8	396.3	436.5	463.0	497.9	497.1	550.0	617.7	 1045	721.3	550.3	532.9	500.9	455.2	450.6	433.8	413.5	377.5	351.3	356.3	335.4	353.6	330.2	319.3	323.9	323.8	332.8	335.2	324.6	299.1	290.7	270.1	254.4	251.7	241.7	234.9	219.1	216.2	205.8	190.2	187.5	182.8	169.7	165.8
