Sample:	'SLABO1-5-5-320
File name:	2P1.FD3
Run Date:	15:11:14, 08/17/2022
Operator:	Administrator
Comment:	'

Instrument
Model:	F-7000 FL Spectrophotometer
Serial Number:	2354-007
ROM Version:	5J14000 06

Instrument Parameters
Measurement type:	3-D Scan
Data mode:	Fluorescence
EX  Start WL:	200.0 nm
EX  End WL:	450.0 nm
EX Sampling Interval:	5.0 nm
EM  Start WL:	280.0 nm
EM  End WL:	550.0 nm
EM Sampling Interval:	5.0 nm
Scan speed:	12000 nm/min
EX Slit:	5.0 nm
EM Slit:	5.0 nm
PMT Voltage:	700 V
Response:	Auto 
Corrected spectra:	Off
Shutter control:	On
Contour interval:	25.000

Peak integration
Integration method:	Rectangular
Sensitivity:	1
Threshold:	1.000

Peaks
No.	ApexEX/EM(nm)	Height(Data)
1	205.0/295.0	657.2
2	205.0/335.0	791.4
3	230.0/340.0	 1326
4	230.0/350.0	 1328
5	230.0/380.0	 1256
6	230.0/485.0	748.3
7	230.0/525.0	384.5
8	235.0/375.0	 1280
9	235.0/405.0	 1493
10	235.0/420.0	 1546
11	235.0/455.0	 1244
12	240.0/415.0	 1550
13	250.0/330.0	754.7
14	265.0/420.0	 1721
15	270.0/435.0	 1782
16	275.0/305.0	996.0
17	275.0/415.0	 1725
18	280.0/310.0	 1104
19	280.0/350.0	 1261
20	280.0/360.0	 1316
21	280.0/420.0	 1709
22	285.0/315.0	 1099
23	285.0/365.0	 1332
24	290.0/320.0	 1041
25	305.0/340.0	729.3
26	310.0/345.0	714.9
27	315.0/355.0	714.8
28	320.0/360.0	821.4
29	320.0/415.0	 1474
30	320.0/425.0	 1461
31	325.0/410.0	 1466
32	335.0/380.0	 1016
33	335.0/420.0	 1468
34	340.0/435.0	 1414
35	370.0/285.0	7.538
36	380.0/310.0	11.04
37	395.0/290.0	5.945
38	405.0/320.0	8.056
39	420.0/305.0	6.166
40	425.0/335.0	8.784
41	430.0/300.0	6.376
42	430.0/355.0	8.369
43	435.0/305.0	6.197
44	435.0/345.0	8.342
45	445.0/365.0	7.965

Data Points
	200.0	205.0	210.0	215.0	220.0	225.0	230.0	235.0	240.0	245.0	250.0	255.0	260.0	265.0	270.0	275.0	280.0	285.0	290.0	295.0	300.0	305.0	310.0	315.0	320.0	325.0	330.0	335.0	340.0	345.0	350.0	355.0	360.0	365.0	370.0	375.0	380.0	385.0	390.0	395.0	400.0	405.0	410.0	415.0	420.0	425.0	430.0	435.0	440.0	445.0	450.0
280.0	27.32	61.20	68.94	83.76	57.43	53.34	43.98	18.58	25.13	51.10	62.85	94.46	50.10	25.63	16.22	 2302	9999.9	 4235	94.59	21.62	21.15	19.06	16.77	12.24	13.19	8.788	8.448	6.705	6.348	5.523	9.847	9.183	6.217	6.252	7.537	6.203	4.666	4.185	4.474	3.103	1.835	3.191	2.129	2.803	1.798	2.013	1.789	1.938	2.295	1.348	1.172
285.0	240.8	206.7	175.4	154.9	187.0	205.6	158.3	71.49	43.22	106.6	151.1	159.3	196.9	119.3	75.61	206.7	 5455	9999.9	9999.9	731.9	30.37	26.22	22.72	15.62	17.53	10.44	9.683	10.38	9.155	7.369	9.058	6.457	6.294	6.612	7.538	6.750	6.449	4.609	4.231	4.956	2.627	3.203	3.440	3.116	1.700	2.375	1.684	2.664	2.231	2.272	2.841
290.0	505.2	436.1	293.2	412.5	473.7	372.7	271.2	146.6	114.1	177.9	209.2	245.4	232.4	316.7	216.4	156.8	473.1	9999.9	9999.9	9999.9	925.2	45.06	36.74	28.70	23.03	14.88	10.79	14.76	12.19	8.076	11.21	6.787	8.118	8.900	6.385	6.178	6.587	5.974	4.666	5.945	4.018	3.793	4.392	3.931	2.385	3.192	3.760	2.273	4.184	2.382	3.089
295.0	536.5	657.2	514.3	524.5	750.6	576.6	496.3	278.7	178.8	221.5	283.6	306.4	269.0	360.0	496.7	313.1	287.8	824.3	9999.9	9999.9	9999.9	 1165	53.13	39.96	35.34	22.65	19.51	13.20	15.96	12.28	10.50	10.98	8.280	8.254	7.993	5.850	6.554	5.945	5.985	3.692	3.916	4.281	4.413	4.252	3.315	3.640	3.579	3.789	3.397	2.959	3.634
300.0	802.4	519.8	555.3	736.3	801.0	755.5	605.8	355.0	290.2	297.3	332.3	351.2	341.8	365.6	656.8	732.1	405.8	352.9	805.5	9999.9	9999.9	9999.9	 1218	66.30	47.06	37.55	27.78	19.55	16.69	16.09	14.54	12.47	10.73	10.13	9.195	9.949	7.325	6.383	6.449	5.873	6.820	5.134	5.444	5.572	3.487	4.486	6.376	4.217	4.563	4.199	5.696
305.0	834.6	732.8	681.3	747.9	861.5	865.4	744.1	456.4	369.1	344.0	411.5	416.1	381.3	453.9	565.2	996.0	808.8	440.6	289.8	799.8	9999.9	9999.9	9999.9	 1374	74.08	49.61	46.37	30.89	24.98	17.86	17.11	13.74	14.44	11.95	11.55	8.822	8.867	9.255	7.085	5.777	6.448	6.303	5.210	5.155	6.166	4.355	4.756	6.197	5.045	6.728	4.700
310.0	703.8	825.3	656.3	870.7	896.7	937.0	804.1	565.0	429.3	423.5	426.5	478.5	447.7	512.4	615.8	796.2	 1104	756.0	380.1	244.3	793.1	9999.9	9999.9	9999.9	 1415	80.72	60.44	48.82	34.25	20.67	18.80	16.03	12.57	11.28	10.70	9.692	11.04	9.046	8.534	6.704	7.107	7.479	5.769	4.873	4.947	5.041	5.766	4.654	5.414	5.322	5.167
315.0	693.8	722.9	768.3	771.8	884.2	 1007	799.4	637.8	484.7	548.4	539.5	548.2	535.9	585.2	689.7	784.0	962.6	 1099	598.1	277.2	218.4	780.2	9999.9	9999.9	9999.9	 1239	87.65	62.90	50.49	36.68	23.65	18.30	18.36	13.63	11.94	9.987	8.893	9.388	7.740	7.694	7.432	6.573	6.061	6.280	6.254	4.935	6.394	6.213	5.386	5.535	5.721
320.0	720.7	813.6	733.6	808.4	998.9	984.9	893.0	709.7	577.3	603.2	620.6	627.3	621.1	689.4	807.4	890.2	955.2	 1017	 1041	460.0	218.6	208.5	801.5	9999.9	9999.9	9999.9	 1218	95.78	66.14	58.72	36.73	27.03	19.74	17.80	18.21	12.65	11.71	11.60	8.301	8.532	6.547	8.056	6.633	6.586	4.635	5.175	6.384	5.788	5.427	5.610	5.043
325.0	738.1	682.2	649.4	782.9	968.2	 1054	 1074	825.1	642.0	621.0	693.8	641.2	663.8	700.8	824.3	991.2	 1048	937.7	965.2	834.5	342.1	210.8	215.1	809.7	9999.9	9999.9	9999.9	 1329	99.69	70.34	54.12	38.60	27.96	22.72	17.85	15.37	11.63	9.902	9.607	10.45	7.695	6.547	7.601	7.452	6.082	6.607	5.539	6.063	6.563	5.993	5.639
330.0	666.8	766.1	746.8	928.6	 1047	 1090	 1229	999.9	762.0	746.4	754.7	729.5	770.0	789.1	920.3	 1040	 1048	 1031	840.9	871.8	635.2	287.0	204.3	204.9	781.5	9999.9	9999.9	9999.9	 1335	98.38	74.84	55.59	43.88	28.42	22.30	17.26	13.34	11.94	11.34	8.456	9.310	7.937	8.740	7.954	6.390	6.874	6.751	6.399	6.310	6.844	5.878
335.0	526.0	791.4	786.9	773.8	939.7	 1181	 1196	 1072	807.1	755.0	714.5	760.3	744.9	840.3	993.9	 1040	 1117	 1075	931.6	687.2	795.4	531.8	265.5	203.4	203.4	793.8	9999.9	9999.9	9999.9	 1397	114.9	77.44	61.20	45.40	31.38	22.41	18.89	13.36	11.23	11.50	8.444	8.732	6.692	7.420	6.442	8.784	6.114	6.413	5.654	6.001	6.358
340.0	519.5	649.0	774.1	861.6	899.0	 1111	 1326	 1073	899.8	826.6	774.7	789.6	738.3	881.8	 1031	 1100	 1204	 1132	951.6	742.7	597.5	729.3	443.7	256.7	208.2	211.6	795.2	9999.9	9999.9	9999.9	 1536	115.8	81.72	61.31	46.57	33.12	21.15	19.33	14.28	9.029	9.634	9.467	8.263	7.745	7.918	8.423	7.440	7.069	6.252	7.899	6.247
345.0	486.2	653.7	665.5	878.4	965.9	 1187	 1277	 1034	967.4	871.6	793.5	794.2	790.6	838.8	985.2	 1151	 1198	 1173	 1032	774.1	613.5	580.1	714.9	386.6	259.0	223.7	233.3	807.9	9999.9	9999.9	9999.9	 1722	120.8	89.09	63.75	44.87	28.71	21.72	15.37	11.29	11.56	7.753	8.844	8.470	7.862	6.608	5.775	8.342	6.813	6.655	7.089
350.0	473.0	669.1	703.7	762.9	840.3	 1113	 1328	 1120	981.6	874.2	848.0	845.8	859.5	923.2	 1066	 1175	 1261	 1196	 1052	887.9	672.0	553.6	636.2	702.2	409.5	289.1	254.5	238.5	804.2	9999.9	9999.9	9999.9	 1780	122.6	88.76	61.13	39.80	28.05	19.77	14.38	14.12	11.36	8.750	7.766	8.302	7.176	6.622	6.599	7.536	6.409	8.435
355.0	526.9	550.5	645.6	777.6	924.7	 1007	 1248	 1108	998.2	923.9	919.5	876.0	940.6	929.6	 1135	 1177	 1211	 1243	 1096	931.3	764.4	652.5	614.5	714.8	709.8	418.2	337.9	283.3	271.1	841.8	9999.9	9999.9	9999.9	 1838	118.6	84.85	59.34	43.86	28.16	16.62	15.85	13.13	10.19	8.867	8.132	6.853	8.369	6.519	6.148	7.086	8.471
360.0	437.6	611.1	755.1	824.8	923.3	 1173	 1245	 1107	 1085	 1025	935.6	 1004	974.4	 1054	 1155	 1203	 1316	 1303	 1153	993.3	841.2	766.1	685.6	672.9	821.4	662.6	453.0	374.7	299.4	266.0	831.2	9999.9	9999.9	9999.9	 1742	115.4	83.64	53.20	40.92	27.65	19.47	14.43	11.02	10.90	8.149	7.383	7.077	6.577	7.007	7.747	8.204
365.0	526.7	527.8	706.5	749.0	 1042	 1106	 1229	 1198	 1096	 1110	990.5	 1006	 1060	 1125	 1193	 1300	 1294	 1332	 1200	 1057	887.7	837.3	788.1	733.6	761.6	886.8	666.7	501.0	398.7	313.0	280.4	829.7	9999.9	9999.9	9999.9	 1887	116.9	71.75	49.97	38.31	25.06	18.31	13.47	10.36	8.942	7.214	7.695	6.495	7.541	7.965	6.250
370.0	513.0	585.7	766.3	759.5	978.7	 1146	 1196	 1135	 1158	 1056	 1085	 1123	 1137	 1146	 1201	 1302	 1336	 1312	 1223	 1092	 1013	934.1	876.1	879.7	808.6	861.9	923.7	677.5	509.3	405.0	313.7	264.5	816.5	9999.9	9999.9	9999.9	 1875	105.2	72.58	52.11	36.19	22.60	15.18	13.23	10.76	8.811	9.344	8.389	6.538	6.924	8.042
375.0	356.3	480.7	656.6	816.0	841.2	 1189	 1206	 1280	 1160	 1125	 1112	 1126	 1160	 1299	 1271	 1373	 1350	 1356	 1296	 1159	 1061	 1029	 1005	966.9	937.3	898.3	949.6	933.1	647.1	500.7	403.1	314.5	261.2	831.9	9999.9	9999.9	9999.9	 2001	101.1	63.23	48.24	36.02	25.02	16.75	10.85	10.57	9.514	7.710	7.806	7.954	7.404
380.0	433.8	635.9	650.0	751.0	910.9	 1163	 1256	 1255	 1135	 1241	 1217	 1168	 1261	 1342	 1370	 1405	 1437	 1408	 1330	 1219	 1148	 1103	 1091	 1065	 1041	977.8	937.0	 1016	918.6	625.9	488.1	381.7	294.9	269.5	820.2	9999.9	9999.9	9999.9	 1752	94.19	65.51	46.69	30.59	22.36	16.67	12.49	13.06	7.687	7.674	7.371	7.945
385.0	500.6	688.0	730.7	750.4	984.3	 1223	 1192	 1228	 1216	 1273	 1319	 1242	 1315	 1375	 1376	 1425	 1423	 1419	 1323	 1229	 1186	 1185	 1169	 1137	 1139	 1084	 1022	964.3	 1027	835.9	616.3	488.9	382.9	297.1	271.7	815.0	9999.9	9999.9	9999.9	 1811	86.56	58.16	45.48	30.82	20.41	16.03	13.59	10.51	7.593	8.688	6.526
390.0	439.6	592.8	686.7	886.3	969.8	 1162	 1266	 1287	 1281	 1269	 1311	 1279	 1403	 1354	 1485	 1487	 1471	 1400	 1444	 1270	 1264	 1238	 1207	 1255	 1234	 1188	 1106	 1074	 1013	 1029	788.5	593.6	471.4	401.8	307.7	264.1	809.1	9999.9	9999.9	9999.9	 1720	87.87	56.84	36.95	30.01	20.21	15.38	13.96	9.152	8.827	8.454
395.0	401.1	494.4	738.6	827.4	959.9	 1186	 1268	 1305	 1316	 1320	 1374	 1376	 1432	 1526	 1495	 1508	 1521	 1515	 1424	 1347	 1308	 1294	 1328	 1315	 1284	 1278	 1191	 1160	 1056	 1048	 1000	759.3	611.7	495.2	398.4	314.4	273.6	808.1	9999.9	9999.9	9999.9	 1699	82.00	56.08	37.35	26.93	19.34	13.81	12.22	11.81	9.586
400.0	418.7	551.5	795.6	883.6	 1031	 1328	 1369	 1368	 1349	 1439	 1449	 1465	 1515	 1548	 1510	 1538	 1612	 1594	 1516	 1417	 1351	 1364	 1351	 1367	 1363	 1318	 1296	 1278	 1157	 1100	 1055	 1002	765.7	602.4	511.6	396.2	303.2	256.0	796.1	9999.9	9999.9	9999.9	 1521	75.78	52.84	34.09	25.28	19.18	15.05	11.43	9.723
405.0	487.7	601.5	676.4	909.8	 1042	 1224	 1363	 1493	 1400	 1371	 1503	 1486	 1539	 1636	 1613	 1576	 1608	 1568	 1480	 1442	 1410	 1374	 1378	 1428	 1399	 1394	 1418	 1339	 1261	 1192	 1080	 1098	957.8	732.2	617.3	488.5	361.3	285.2	262.4	789.3	9999.9	9999.9	9999.9	 1350	70.45	47.09	31.97	25.94	19.71	11.99	11.01
410.0	469.4	669.7	773.0	983.5	 1113	 1147	 1406	 1369	 1414	 1420	 1504	 1539	 1612	 1628	 1637	 1637	 1644	 1615	 1548	 1472	 1415	 1401	 1429	 1421	 1440	 1466	 1443	 1404	 1346	 1249	 1148	 1097	 1066	919.6	714.6	582.9	448.7	345.1	269.3	235.6	772.3	9999.9	9999.9	9999.9	 1232	62.09	46.62	30.58	23.45	17.40	15.20
415.0	376.3	561.5	761.5	930.3	 1073	 1301	 1470	 1510	 1550	 1461	 1539	 1558	 1623	 1670	 1683	 1725	 1672	 1622	 1530	 1467	 1374	 1420	 1433	 1429	 1474	 1463	 1437	 1441	 1404	 1327	 1233	 1139	 1118	 1068	871.3	681.2	523.0	410.8	314.2	240.4	213.0	762.5	9999.9	9999.9	9999.9	 1255	60.25	44.04	27.32	21.44	16.81
420.0	410.2	642.7	754.5	941.0	 1164	 1185	 1538	 1546	 1438	 1502	 1545	 1671	 1662	 1721	 1697	 1683	 1709	 1664	 1532	 1473	 1429	 1412	 1437	 1447	 1443	 1456	 1457	 1468	 1416	 1350	 1287	 1191	 1102	 1101	 1029	772.1	580.8	468.5	370.0	282.9	206.4	200.3	738.7	9999.9	9999.9	9999.9	 1115	61.08	38.36	29.46	20.91
425.0	359.1	591.4	853.2	760.1	 1166	 1183	 1331	 1502	 1454	 1524	 1586	 1625	 1625	 1666	 1669	 1728	 1701	 1614	 1553	 1433	 1348	 1379	 1395	 1428	 1461	 1437	 1424	 1456	 1413	 1404	 1309	 1214	 1145	 1090	 1055	925.6	663.5	530.9	414.3	321.5	245.3	180.2	180.6	738.8	9999.9	9999.9	9999.9	947.2	51.17	36.76	26.39
430.0	401.9	526.0	639.8	730.3	 1009	 1242	 1223	 1417	 1409	 1382	 1437	 1630	 1657	 1731	 1763	 1730	 1650	 1605	 1530	 1430	 1413	 1389	 1369	 1398	 1399	 1411	 1413	 1445	 1395	 1380	 1320	 1227	 1169	 1109	 1020	976.4	783.7	591.4	468.3	376.7	296.4	221.1	159.5	171.4	732.4	 9922	9999.9	9999.9	850.0	50.15	36.38
435.0	424.3	478.5	834.0	872.6	 1001	 1106	 1345	 1409	 1366	 1484	 1511	 1497	 1668	 1686	 1782	 1736	 1711	 1617	 1467	 1398	 1356	 1357	 1333	 1321	 1359	 1406	 1399	 1410	 1414	 1365	 1312	 1258	 1199	 1147	 1007	946.9	873.4	678.1	513.5	411.0	326.5	268.0	197.4	148.3	163.4	714.1	 9469	9999.9	9999.9	835.3	52.72
440.0	357.2	543.7	713.3	907.4	984.8	 1108	 1304	 1384	 1358	 1372	 1497	 1634	 1631	 1748	 1758	 1726	 1687	 1584	 1445	 1354	 1325	 1274	 1297	 1298	 1311	 1331	 1350	 1363	 1376	 1335	 1284	 1254	 1209	 1158	 1042	919.0	850.0	773.2	559.8	466.7	364.4	289.1	238.2	175.6	143.7	153.7	674.6	 9463	9999.9	9999.9	741.7
445.0	367.3	479.5	588.8	763.5	966.6	 1191	 1202	 1290	 1319	 1423	 1402	 1516	 1533	 1689	 1740	 1736	 1669	 1537	 1457	 1331	 1242	 1266	 1249	 1272	 1274	 1266	 1328	 1304	 1306	 1282	 1279	 1224	 1185	 1153	 1057	949.4	832.4	768.8	663.8	503.1	387.9	316.6	264.4	220.0	167.1	130.0	147.1	673.5	 9554	9999.9	9999.9
450.0	352.9	484.3	624.1	672.8	845.3	 1003	 1184	 1173	 1239	 1336	 1407	 1538	 1484	 1649	 1611	 1631	 1584	 1540	 1405	 1283	 1199	 1220	 1146	 1208	 1233	 1206	 1217	 1250	 1241	 1239	 1204	 1190	 1159	 1129	 1032	932.4	842.7	736.8	701.1	557.3	436.9	349.5	288.4	237.6	191.7	157.1	132.0	145.0	686.8	 8898	9999.9
455.0	355.1	414.2	497.6	637.5	744.8	878.5	 1073	 1244	 1142	 1298	 1289	 1389	 1463	 1549	 1607	 1515	 1507	 1447	 1376	 1220	 1130	 1122	 1105	 1160	 1162	 1131	 1165	 1186	 1148	 1161	 1139	 1142	 1134	 1087	 1009	912.2	825.1	716.4	646.5	596.9	483.2	373.6	310.5	267.2	220.0	179.3	147.7	121.9	133.3	635.0	 8872
460.0	318.4	417.8	467.1	732.8	722.0	962.6	 1061	 1131	 1153	 1166	 1274	 1286	 1402	 1470	 1472	 1505	 1433	 1379	 1248	 1186	 1107	 1056	 1048	 1062	 1093	 1077	 1091	 1093	 1094	 1099	 1095	 1046	 1044	 1046	978.0	885.3	795.3	691.8	610.1	567.4	516.4	400.3	340.6	290.6	239.4	211.7	167.3	127.5	114.4	128.8	626.2
465.0	305.8	407.9	512.9	579.4	696.3	862.1	991.3	997.2	 1049	 1130	 1189	 1198	 1403	 1423	 1415	 1421	 1402	 1322	 1261	 1105	 1057	 1001	996.1	971.7	973.9	986.4	 1026	 1031	 1003	 1035	 1010	985.7	995.3	987.6	927.8	853.4	753.0	676.5	610.9	538.5	507.4	444.4	365.9	300.1	262.1	217.0	177.5	152.0	125.2	109.5	116.8
470.0	290.2	428.1	453.4	625.4	632.1	842.1	874.7	880.3	 1024	 1032	 1155	 1147	 1241	 1293	 1393	 1410	 1337	 1261	 1140	 1010	985.7	953.9	904.4	951.4	918.7	916.6	917.7	948.5	936.8	936.7	930.7	943.8	941.9	918.1	884.5	809.0	740.9	676.4	585.6	527.2	478.5	452.3	381.1	300.9	272.5	232.8	200.4	168.9	139.3	115.5	93.03
475.0	285.5	356.3	362.5	516.5	561.2	660.0	774.3	872.2	931.6	 1032	997.6	 1046	 1135	 1203	 1316	 1271	 1250	 1147	 1040	997.5	883.2	868.0	869.5	837.4	857.2	840.8	845.2	873.9	845.0	864.9	824.4	862.7	849.4	833.1	828.0	752.6	698.6	630.2	575.6	504.8	453.0	426.4	400.0	339.5	277.0	234.6	204.9	177.2	153.2	130.1	104.8
480.0	230.2	314.9	371.2	481.1	540.4	589.7	716.0	780.9	887.5	911.2	970.8	987.8	 1045	 1130	 1221	 1196	 1173	 1088	992.2	898.0	857.7	826.3	793.9	768.0	775.0	775.6	788.5	798.2	803.1	786.5	788.3	800.7	808.8	798.8	761.3	709.4	659.0	590.8	541.8	488.0	436.4	401.0	377.0	355.6	294.3	249.3	213.5	191.6	163.0	140.0	119.1
485.0	181.7	231.3	355.4	421.8	518.4	561.1	748.3	625.5	853.1	837.1	868.9	892.5	987.8	 1072	 1180	 1097	 1063	 1021	973.8	866.3	787.0	758.7	751.3	719.1	722.3	724.7	715.0	707.8	741.5	744.5	731.0	733.6	728.0	730.3	717.8	699.4	633.5	566.0	523.7	465.2	421.8	388.9	357.8	337.6	318.6	255.1	226.0	201.5	174.8	156.9	123.5
490.0	185.0	306.1	367.6	464.8	510.2	558.5	712.9	639.4	745.5	783.8	846.5	898.3	853.1	 1022	 1083	 1090	 1058	951.8	874.5	809.4	745.8	731.9	716.8	713.9	688.0	687.3	699.6	682.8	675.8	688.6	689.3	684.5	687.1	701.4	688.9	643.5	593.0	553.2	502.7	444.9	404.8	363.8	349.8	322.4	309.0	274.7	230.3	207.1	186.4	159.1	138.8
495.0	211.8	277.8	366.7	350.4	444.5	488.5	616.1	713.8	684.0	760.5	807.1	820.9	847.0	980.1	 1020	 1025	998.3	958.2	833.4	762.3	721.8	674.4	643.1	637.3	646.6	644.7	631.0	645.7	626.6	652.6	634.2	639.3	632.7	650.9	633.3	601.1	574.4	515.6	476.0	423.8	393.4	364.1	333.8	300.6	293.0	284.6	240.7	206.7	187.8	165.2	154.2
500.0	175.1	274.2	300.6	368.7	414.8	438.0	546.7	628.0	682.1	678.5	771.3	844.4	807.9	847.1	910.9	 1003	963.6	869.8	804.3	749.9	667.9	599.6	631.6	619.7	607.4	578.2	592.5	569.9	586.8	593.3	594.6	595.5	594.7	593.0	567.4	565.8	519.5	482.8	438.1	413.3	377.1	353.5	316.2	287.0	276.2	272.6	264.1	219.5	189.5	168.5	149.3
505.0	155.4	206.3	335.6	294.5	431.8	475.4	504.3	585.7	628.1	642.7	651.0	750.7	806.4	794.7	794.5	873.6	858.5	829.4	725.7	660.8	627.7	594.0	561.8	545.6	546.3	520.9	517.8	525.6	523.9	534.6	531.1	518.4	558.2	553.6	537.5	506.3	496.9	440.4	423.0	383.4	358.7	331.3	307.2	277.0	266.6	254.9	244.9	227.9	191.3	171.1	146.9
510.0	151.2	225.3	298.6	301.3	326.1	455.1	481.5	560.4	552.2	571.5	605.0	695.8	696.8	770.2	794.8	794.5	766.2	736.7	645.7	628.7	565.3	543.7	532.2	505.4	495.3	480.4	480.4	483.5	482.9	476.3	489.9	476.7	484.0	489.7	486.9	460.0	437.4	419.1	386.0	351.3	335.5	306.3	284.4	256.9	250.9	229.0	229.8	224.7	193.6	172.4	146.7
515.0	176.7	140.5	277.4	272.3	313.3	459.9	455.2	437.0	515.7	505.8	576.6	576.6	651.1	686.5	765.4	748.5	719.0	683.6	636.8	554.3	519.4	495.5	497.8	464.6	450.4	429.8	437.7	431.5	415.9	432.8	433.6	434.8	433.3	434.5	437.8	428.4	407.7	375.0	351.2	316.1	304.9	283.7	269.8	253.6	233.7	222.6	207.0	208.8	192.4	180.7	153.6
520.0	86.00	117.2	244.9	230.3	273.7	369.0	343.3	420.1	466.0	513.2	549.3	523.2	587.8	621.8	624.7	655.8	662.7	597.3	604.3	503.7	493.2	458.5	446.6	426.7	429.5	428.2	406.4	401.4	384.4	387.4	398.5	401.4	405.5	399.9	419.0	379.0	373.0	349.5	322.4	293.6	273.6	268.3	250.1	238.8	225.3	210.6	195.5	190.0	183.7	185.3	148.2
525.0	151.7	129.1	178.4	222.6	229.7	311.8	384.5	336.5	402.1	469.1	535.4	532.7	529.0	576.0	603.5	578.5	566.3	559.1	542.3	483.4	443.7	431.3	394.3	392.5	389.9	371.4	373.0	353.4	362.4	348.6	342.2	356.3	362.7	366.4	362.5	341.1	327.8	313.1	296.2	279.0	254.7	247.1	232.0	216.0	208.0	194.4	187.3	169.5	162.7	169.3	151.5
530.0	117.8	150.2	188.7	139.2	260.0	275.9	348.5	321.3	362.2	364.1	483.6	447.1	492.7	524.5	545.7	542.0	498.2	470.6	475.6	408.0	406.1	386.7	359.1	346.5	353.1	318.2	334.1	331.3	320.4	328.5	319.1	326.6	323.9	318.1	330.1	317.0	302.5	277.1	267.9	242.6	238.1	221.1	210.5	194.3	198.1	180.9	167.6	163.9	156.4	146.7	147.7
535.0	84.60	117.9	127.3	166.9	214.4	257.3	285.7	329.1	344.4	372.7	389.4	384.8	447.5	515.4	515.4	522.3	523.4	429.5	434.8	386.4	370.1	344.8	316.9	328.7	308.4	285.0	297.2	286.4	300.5	288.6	289.2	279.4	292.2	294.4	297.0	284.0	268.2	244.6	235.3	227.8	203.8	199.8	193.6	179.9	171.5	162.7	159.0	139.3	140.6	132.0	138.5
540.0	122.7	87.77	136.4	151.2	174.2	229.7	248.7	310.8	275.2	320.0	332.0	368.6	387.2	442.7	496.6	474.4	425.5	423.4	375.7	346.5	306.0	304.7	293.5	292.8	278.9	262.2	249.1	259.7	268.4	265.9	251.9	249.8	259.5	254.5	254.9	254.3	239.3	223.0	216.4	192.6	196.5	183.9	168.3	165.1	151.1	148.5	144.2	128.0	135.4	128.3	117.4
545.0	61.29	76.42	113.9	143.3	168.3	199.8	202.8	215.3	251.6	276.8	333.8	342.2	372.7	371.5	474.4	567.4	422.3	353.8	348.4	314.3	271.9	278.3	266.5	249.7	243.0	244.6	220.6	238.0	232.7	232.8	220.9	234.1	231.4	236.2	222.5	223.7	210.8	201.0	183.0	177.5	175.0	167.1	152.0	151.0	141.7	141.6	127.1	114.3	121.2	112.7	107.0
550.0	74.24	132.3	116.0	169.8	120.9	164.3	192.2	242.9	251.4	242.2	297.5	289.9	306.1	338.3	397.3	878.2	492.1	349.6	305.5	284.1	245.7	251.8	234.4	225.1	208.7	214.3	206.0	216.6	213.4	212.7	207.9	211.0	197.0	221.3	201.5	206.6	194.5	179.4	170.7	158.9	154.5	151.3	134.7	137.8	139.9	128.7	112.7	112.3	110.0	103.3	97.74
