Sample:	'SLABO1-5-5-320
File name:	2P10.FD3
Run Date:	17:29:03, 08/17/2022
Operator:	Administrator
Comment:	'

Instrument
Model:	F-7000 FL Spectrophotometer
Serial Number:	2354-007
ROM Version:	5J14000 06

Instrument Parameters
Measurement type:	3-D Scan
Data mode:	Fluorescence
EX  Start WL:	200.0 nm
EX  End WL:	450.0 nm
EX Sampling Interval:	5.0 nm
EM  Start WL:	280.0 nm
EM  End WL:	550.0 nm
EM Sampling Interval:	5.0 nm
Scan speed:	12000 nm/min
EX Slit:	5.0 nm
EM Slit:	5.0 nm
PMT Voltage:	700 V
Response:	Auto 
Corrected spectra:	Off
Shutter control:	On
Contour interval:	25.000

Peak integration
Integration method:	Rectangular
Sensitivity:	1
Threshold:	1.000

Peaks
No.	ApexEX/EM(nm)	Height(Data)
1	205.0/350.0	687.5
2	210.0/300.0	697.8
3	215.0/530.0	231.6
4	220.0/505.0	427.2
5	225.0/330.0	 1611
6	225.0/340.0	 1629
7	225.0/360.0	 1347
8	225.0/375.0	 1368
9	230.0/335.0	 1568
10	230.0/385.0	 1334
11	235.0/525.0	443.8
12	240.0/390.0	 1414
13	245.0/415.0	 1637
14	250.0/295.0	673.5
15	250.0/405.0	 1577
16	270.0/440.0	 1963
17	275.0/425.0	 1933
18	280.0/310.0	 1781
19	280.0/340.0	 2191
20	280.0/420.0	 1894
21	285.0/395.0	 1752
22	305.0/410.0	 1673
23	310.0/345.0	708.0
24	310.0/400.0	 1642
25	310.0/415.0	 1675
26	315.0/355.0	723.5
27	320.0/415.0	 1722
28	325.0/410.0	 1693
29	325.0/425.0	 1652
30	335.0/430.0	 1636
31	380.0/295.0	6.477
32	385.0/315.0	8.331
33	410.0/325.0	8.378
34	435.0/325.0	7.036
35	435.0/350.0	7.705
36	440.0/320.0	6.990
37	440.0/380.0	9.357
38	445.0/345.0	9.050

Data Points
	200.0	205.0	210.0	215.0	220.0	225.0	230.0	235.0	240.0	245.0	250.0	255.0	260.0	265.0	270.0	275.0	280.0	285.0	290.0	295.0	300.0	305.0	310.0	315.0	320.0	325.0	330.0	335.0	340.0	345.0	350.0	355.0	360.0	365.0	370.0	375.0	380.0	385.0	390.0	395.0	400.0	405.0	410.0	415.0	420.0	425.0	430.0	435.0	440.0	445.0	450.0
280.0	65.13	95.43	52.78	38.03	59.21	50.57	40.62	22.40	62.44	120.5	216.4	207.9	128.0	49.41	31.60	 1141	 6602	 2425	69.33	12.22	14.71	10.10	12.94	9.657	10.78	9.085	5.452	6.248	5.802	4.919	4.344	5.689	5.022	4.394	4.079	4.501	4.381	3.958	3.024	3.801	3.174	2.468	2.595	1.912	1.819	1.728	1.604	1.903	2.258	1.748	2.047
285.0	200.0	134.0	172.3	184.1	227.7	196.2	108.4	78.97	148.7	316.8	490.5	420.0	377.5	199.3	116.9	158.7	 2754	9999.9	 9544	484.1	20.89	18.95	13.81	9.906	10.23	9.910	6.393	6.854	6.857	4.388	4.431	5.961	5.983	5.518	6.099	4.116	5.263	2.791	3.898	3.369	2.751	3.089	2.550	3.376	2.446	2.596	1.859	2.405	2.676	2.734	2.229
290.0	385.3	319.1	234.6	390.2	396.8	433.0	252.9	176.4	268.5	479.2	647.6	587.9	492.2	459.6	278.5	242.7	380.4	 6464	9999.9	9999.9	663.8	27.59	26.00	19.74	15.39	12.22	10.22	8.273	7.135	5.819	6.873	7.169	8.252	6.404	6.151	6.119	3.771	4.540	4.053	4.941	4.008	3.893	3.239	2.651	3.556	2.847	2.245	3.307	3.627	3.135	3.176
295.0	598.8	427.0	437.6	432.5	591.4	611.9	618.6	311.0	322.1	545.5	673.5	669.9	549.0	559.9	743.5	540.2	466.5	705.2	9999.9	9999.9	9999.9	808.0	30.33	25.38	21.17	16.94	13.48	10.53	8.965	9.695	7.763	6.269	7.572	6.622	5.605	4.588	6.477	6.207	6.170	5.909	3.748	4.613	3.746	3.279	3.591	3.107	2.990	3.966	3.844	3.551	4.009
300.0	573.4	533.1	697.8	569.6	890.4	966.5	821.2	504.6	426.6	514.2	659.4	643.5	561.9	617.4	958.8	 1109	762.9	551.0	872.6	9999.9	9999.9	9999.9	848.5	42.12	36.12	24.31	21.69	15.04	12.69	9.340	10.24	8.278	8.455	6.545	6.682	5.648	5.388	5.356	5.453	3.908	5.538	5.346	3.786	3.295	3.189	4.833	3.710	4.764	4.939	3.849	5.808
305.0	639.5	576.9	621.7	629.1	937.9	 1037	905.5	726.9	471.3	449.1	573.8	611.4	639.3	746.3	 1008	 1481	 1357	835.7	461.8	843.8	9999.9	9999.9	9999.9	988.5	49.44	39.62	31.24	19.88	15.65	12.44	12.37	9.674	9.375	9.321	8.443	6.719	7.093	5.307	5.121	5.357	5.409	5.012	4.141	4.665	4.447	4.061	5.301	5.277	4.390	6.259	5.531
310.0	646.0	688.6	649.3	804.7	977.5	 1186	 1112	788.2	545.9	524.7	578.7	644.2	673.8	804.8	 1126	 1443	 1781	 1279	631.9	337.1	788.0	9999.9	9999.9	9999.9	 1006	56.18	41.61	33.78	22.19	16.66	12.16	12.78	12.62	11.30	12.03	8.568	8.037	7.060	6.436	5.509	6.395	5.901	3.228	3.974	5.039	4.364	4.451	5.390	5.818	6.212	5.598
315.0	659.1	713.4	800.1	817.4	 1086	 1299	 1195	922.6	577.8	591.3	605.1	671.0	772.7	982.0	 1305	 1567	 1674	 1760	985.6	459.1	282.2	758.5	9999.9	9999.9	9999.9	909.5	58.93	44.55	33.98	24.24	17.65	17.07	9.153	11.37	11.20	8.324	7.159	8.331	7.564	6.176	6.279	5.931	4.573	5.183	4.802	5.539	5.720	4.700	6.323	6.247	7.357
320.0	678.6	659.1	681.2	855.3	 1059	 1431	 1404	947.9	711.2	588.1	640.3	718.5	838.4	 1130	 1400	 1731	 1798	 1782	 1509	703.9	322.0	213.9	757.3	9999.9	9999.9	9999.9	893.9	61.92	43.17	37.20	24.02	21.47	14.90	13.36	10.70	10.10	8.826	7.059	8.137	6.931	4.875	6.272	6.129	5.390	4.484	5.056	5.623	5.679	6.990	6.447	6.578
325.0	647.7	593.8	882.9	857.6	 1214	 1434	 1476	 1079	773.7	653.2	663.7	704.1	929.6	 1224	 1528	 1842	 1959	 1748	 1559	 1156	446.3	207.8	175.8	736.8	9999.9	9999.9	9999.9	996.0	69.11	47.50	37.34	27.29	20.91	17.06	13.70	12.04	9.496	9.616	8.408	7.050	6.259	6.807	8.378	5.126	5.281	5.495	5.474	7.036	4.698	6.568	7.426
330.0	519.4	686.5	698.6	849.7	 1160	 1611	 1500	 1214	756.9	670.1	710.7	792.2	992.7	 1297	 1590	 1921	 2081	 1920	 1515	 1264	750.3	296.2	188.5	174.6	739.6	9999.9	9999.9	9999.9	987.1	70.32	52.26	38.73	32.73	20.29	17.80	11.64	10.93	8.285	9.799	7.187	7.909	7.119	7.277	6.529	6.215	5.623	4.961	5.489	6.388	7.004	8.367
335.0	578.3	707.7	841.3	 1058	 1232	 1555	 1568	 1236	844.0	695.2	748.8	811.8	966.9	 1330	 1708	 2006	 2174	 1972	 1576	 1101	922.9	566.1	232.6	168.6	175.3	761.8	9999.9	9999.9	9999.9	987.3	73.19	49.61	42.12	26.92	19.89	16.19	12.40	9.875	9.655	5.541	7.855	5.551	5.858	7.105	6.304	4.547	6.418	5.267	6.237	6.382	6.762
340.0	542.2	636.6	650.3	856.0	 1199	 1629	 1470	 1249	851.1	809.9	784.8	864.5	 1082	 1383	 1713	 2043	 2191	 1992	 1635	 1092	761.9	784.5	431.3	228.3	171.9	180.1	761.6	9999.9	9999.9	9999.9	 1109	80.26	59.60	44.96	27.84	21.84	16.11	11.59	10.87	7.494	8.146	6.931	6.886	6.827	5.995	5.622	7.495	6.904	7.015	8.897	7.898
345.0	471.9	668.2	710.0	752.4	 1068	 1512	 1454	 1091	960.3	772.5	799.9	853.8	 1146	 1324	 1681	 1956	 2154	 2033	 1694	 1182	717.2	608.4	708.0	373.0	235.3	180.8	194.3	763.7	9999.9	9999.9	9999.9	 1223	84.58	60.66	46.57	31.73	24.40	16.38	12.19	10.88	7.484	7.727	4.845	6.926	5.868	6.408	5.902	7.183	6.515	9.050	7.221
350.0	514.8	687.5	641.5	722.2	 1111	 1284	 1366	 1190	984.1	843.2	791.1	859.7	 1062	 1323	 1642	 1917	 2076	 1974	 1704	 1212	803.3	596.6	646.9	687.9	372.7	283.3	217.9	209.1	785.0	9999.9	9999.9	9999.9	 1266	84.12	60.26	41.10	33.12	22.31	14.76	11.31	8.923	9.329	8.117	6.293	4.982	5.919	6.322	7.705	7.067	7.304	7.563
355.0	494.4	498.1	680.0	812.5	 1144	 1302	 1386	 1187	920.6	833.9	846.0	948.6	 1075	 1356	 1649	 1908	 2023	 1957	 1669	 1256	867.6	696.4	606.1	723.5	673.7	407.1	324.2	264.1	252.9	781.2	9999.9	9999.9	9999.9	 1332	89.44	66.21	42.36	29.31	19.21	14.47	12.39	10.17	9.925	6.683	6.575	6.365	5.762	6.243	7.192	8.112	6.945
360.0	441.6	595.0	654.8	862.7	 1154	 1347	 1320	 1155	986.3	904.4	883.8	917.8	 1147	 1341	 1636	 1878	 2008	 1922	 1694	 1266	961.0	781.5	702.2	683.2	841.2	704.2	466.4	366.6	289.2	257.3	793.4	9999.9	9999.9	9999.9	 1249	86.68	61.38	39.75	30.28	20.97	13.74	12.17	10.21	8.347	6.074	5.887	7.266	6.537	7.239	8.032	7.763
365.0	363.6	536.0	618.4	734.3	 1065	 1276	 1284	 1044	933.4	998.6	 1008	957.3	 1162	 1348	 1551	 1788	 1921	 1868	 1659	 1340	 1082	910.6	823.7	795.7	821.7	948.4	685.9	496.4	397.1	299.0	268.1	786.2	9999.9	9999.9	9999.9	 1448	88.31	57.79	40.14	30.00	17.93	13.05	13.04	10.34	6.527	6.569	6.360	6.931	6.860	7.506	7.818
370.0	430.7	499.6	588.6	783.2	943.9	 1240	 1263	 1221	 1037	 1015	 1038	 1055	 1149	 1386	 1565	 1724	 1784	 1839	 1693	 1364	 1132	 1067	993.4	942.7	900.3	923.1	993.9	713.8	522.5	395.2	294.0	258.1	779.8	9999.9	9999.9	9999.9	 1410	80.93	55.61	40.38	27.59	17.91	14.42	12.16	7.029	7.187	6.940	7.133	5.994	6.022	7.300
375.0	325.2	484.5	575.5	832.6	939.2	 1368	 1322	 1217	 1078	 1111	 1142	 1131	 1161	 1338	 1495	 1731	 1782	 1764	 1602	 1428	 1253	 1173	 1159	 1127	 1103	 1004	 1058	 1012	705.5	509.5	368.8	290.3	235.8	795.0	9999.9	9999.9	9999.9	 1476	74.39	52.20	34.48	25.67	19.12	14.11	11.94	7.598	8.269	6.953	8.092	6.875	8.269
380.0	466.5	430.1	714.3	722.9	 1167	 1264	 1143	 1187	 1213	 1182	 1239	 1192	 1268	 1417	 1473	 1690	 1755	 1746	 1686	 1527	 1373	 1296	 1279	 1269	 1223	 1140	 1086	 1100	951.4	660.1	490.5	374.1	291.6	239.6	786.0	9999.9	9999.9	9999.9	 1311	77.04	50.99	34.48	23.41	18.53	12.73	11.02	8.282	8.650	9.357	8.163	8.482
385.0	309.1	589.9	724.4	779.3	 1105	 1218	 1334	 1312	 1218	 1285	 1299	 1248	 1353	 1280	 1442	 1598	 1699	 1724	 1660	 1557	 1460	 1428	 1428	 1386	 1376	 1272	 1170	 1081	 1114	897.1	612.7	483.2	360.6	282.8	248.6	783.6	9999.9	9999.9	9999.9	 1386	66.94	44.14	34.76	23.21	17.60	11.67	11.02	9.363	8.145	9.063	8.074
390.0	436.3	603.8	648.6	 1002	 1071	 1284	 1331	 1241	 1414	 1343	 1296	 1283	 1371	 1411	 1464	 1569	 1672	 1740	 1691	 1584	 1500	 1500	 1524	 1524	 1452	 1377	 1297	 1157	 1071	 1084	829.9	586.2	474.6	368.2	286.4	250.3	778.1	9999.9	9999.9	9999.9	 1308	65.29	45.76	31.29	19.72	17.08	13.68	12.83	8.682	7.171	9.453
395.0	378.3	514.6	703.9	930.6	 1045	 1235	 1292	 1421	 1398	 1343	 1357	 1365	 1429	 1425	 1511	 1547	 1726	 1752	 1743	 1621	 1566	 1570	 1630	 1606	 1565	 1480	 1391	 1317	 1161	 1106	 1037	780.9	568.5	479.2	375.0	285.4	237.1	772.1	9999.9	9999.9	9999.9	 1327	61.28	42.14	27.86	21.70	19.43	13.38	12.06	9.529	8.820
400.0	384.5	545.2	638.8	865.0	 1044	 1119	 1265	 1387	 1372	 1471	 1426	 1507	 1414	 1516	 1525	 1645	 1739	 1704	 1725	 1716	 1628	 1596	 1642	 1617	 1599	 1606	 1522	 1379	 1284	 1147	 1079	 1011	751.0	601.3	479.0	369.7	267.8	226.4	765.5	9999.9	9999.9	9999.9	 1188	57.63	38.99	31.49	20.08	17.97	13.49	13.13	9.484
405.0	376.0	624.6	716.5	734.3	 1025	 1278	 1324	 1436	 1434	 1467	 1577	 1464	 1558	 1645	 1636	 1714	 1744	 1768	 1694	 1722	 1616	 1672	 1622	 1680	 1691	 1604	 1579	 1481	 1368	 1249	 1109	 1116	964.6	741.5	587.7	464.0	346.4	271.9	224.5	761.0	 9458	9999.9	9999.9	 1056	53.86	37.09	27.80	18.81	14.12	12.36	10.87
410.0	453.5	486.8	666.3	821.6	 1090	 1214	 1415	 1419	 1527	 1584	 1472	 1603	 1664	 1643	 1648	 1715	 1803	 1764	 1784	 1684	 1635	 1673	 1658	 1655	 1667	 1693	 1654	 1557	 1469	 1311	 1207	 1142	 1126	944.5	714.5	558.5	431.2	318.8	242.2	210.0	710.1	 9507	9999.9	9999.9	969.8	57.25	35.53	26.03	17.76	16.27	12.16
415.0	306.3	576.3	631.4	866.7	 1085	 1279	 1355	 1370	 1519	 1637	 1601	 1617	 1656	 1656	 1757	 1780	 1876	 1817	 1768	 1666	 1628	 1668	 1675	 1666	 1722	 1661	 1645	 1582	 1503	 1419	 1301	 1200	 1135	 1128	869.9	676.0	522.6	400.5	301.0	209.2	186.0	706.6	 8981	9999.9	9999.9	977.7	51.01	33.22	25.58	17.34	15.21
420.0	340.8	533.3	726.7	718.0	884.2	 1280	 1319	 1334	 1408	 1570	 1603	 1617	 1742	 1719	 1794	 1876	 1894	 1837	 1733	 1667	 1603	 1648	 1613	 1675	 1678	 1638	 1643	 1627	 1561	 1485	 1358	 1269	 1196	 1148	 1068	809.3	630.4	495.1	370.4	266.1	198.5	184.6	670.1	 8707	9999.9	9999.9	866.9	49.05	33.35	22.57	17.85
425.0	390.8	386.1	624.4	847.7	876.7	 1267	 1320	 1473	 1447	 1585	 1632	 1575	 1741	 1740	 1830	 1933	 1860	 1806	 1721	 1618	 1535	 1584	 1594	 1608	 1636	 1652	 1640	 1603	 1567	 1509	 1427	 1353	 1265	 1183	 1160	981.8	721.6	555.7	428.5	312.7	237.0	180.0	170.1	643.8	 7947	9999.9	9999.9	745.9	41.55	31.91	20.27
430.0	358.7	354.2	614.2	753.7	971.6	956.3	 1234	 1239	 1458	 1576	 1656	 1683	 1769	 1737	 1859	 1903	 1895	 1798	 1742	 1637	 1521	 1555	 1593	 1563	 1597	 1617	 1611	 1636	 1588	 1550	 1477	 1414	 1348	 1230	 1146	 1069	847.2	630.3	477.7	374.9	286.9	216.4	160.0	153.5	586.5	 7576	9999.9	9999.9	661.8	44.55	29.20
435.0	276.6	467.4	532.4	761.1	883.9	 1016	 1239	 1341	 1422	 1594	 1602	 1699	 1844	 1824	 1845	 1895	 1917	 1787	 1643	 1542	 1450	 1502	 1490	 1521	 1562	 1571	 1598	 1588	 1556	 1550	 1487	 1436	 1398	 1305	 1148	 1053	951.2	728.4	561.2	438.7	338.5	260.5	196.2	144.7	142.2	552.6	 7304	9999.9	9999.9	672.5	39.98
440.0	375.8	395.1	444.3	754.4	 1007	 1166	 1226	 1350	 1406	 1475	 1584	 1628	 1731	 1893	 1963	 1958	 1935	 1763	 1601	 1469	 1416	 1395	 1449	 1475	 1496	 1540	 1543	 1561	 1558	 1524	 1487	 1456	 1375	 1354	 1232	 1052	968.3	857.3	637.7	473.2	382.4	304.8	227.8	184.0	137.2	131.3	537.6	 7336	9999.9	9999.9	571.1
445.0	263.8	483.0	541.3	640.8	 1019	933.6	 1113	 1152	 1367	 1464	 1600	 1624	 1717	 1839	 1849	 1904	 1917	 1754	 1600	 1429	 1370	 1378	 1355	 1379	 1409	 1470	 1484	 1524	 1518	 1515	 1473	 1456	 1408	 1337	 1243	 1076	930.0	857.3	713.4	533.4	420.6	336.1	259.4	209.8	165.4	121.6	124.2	533.2	 7352	9999.9	9999.9
450.0	244.6	339.9	587.5	535.9	948.8	964.8	 1012	 1230	 1330	 1341	 1486	 1584	 1669	 1710	 1894	 1858	 1883	 1686	 1508	 1335	 1275	 1282	 1306	 1284	 1362	 1384	 1410	 1443	 1460	 1433	 1401	 1410	 1359	 1308	 1226	 1102	971.2	828.7	761.7	600.8	461.2	363.9	300.9	236.7	184.5	150.6	119.3	115.9	535.7	 6958	9999.9
455.0	369.9	276.1	442.7	507.5	682.0	901.0	 1079	 1151	 1252	 1295	 1490	 1536	 1680	 1718	 1698	 1790	 1782	 1594	 1388	 1286	 1236	 1194	 1189	 1228	 1268	 1299	 1308	 1311	 1375	 1356	 1340	 1329	 1352	 1290	 1193	 1092	959.5	828.3	718.4	647.3	511.4	404.1	319.0	264.9	214.2	170.0	145.1	101.6	114.1	506.6	 6930
460.0	284.1	387.1	368.1	566.0	715.0	845.0	975.1	 1067	 1106	 1294	 1330	 1413	 1537	 1599	 1676	 1674	 1703	 1533	 1349	 1225	 1151	 1077	 1111	 1145	 1162	 1219	 1224	 1239	 1288	 1271	 1268	 1265	 1274	 1220	 1192	 1051	935.0	813.8	693.7	634.1	557.9	432.3	349.0	286.6	231.1	188.6	154.7	125.9	95.47	105.9	491.5
465.0	260.5	312.2	434.8	419.4	672.4	775.0	935.7	 1019	 1075	 1110	 1304	 1343	 1480	 1549	 1589	 1614	 1564	 1408	 1262	 1139	 1055	 1067	 1042	 1083	 1061	 1107	 1122	 1171	 1168	 1197	 1203	 1192	 1188	 1173	 1084	 1026	895.5	796.6	688.7	611.8	558.0	473.0	373.9	297.7	252.4	212.5	175.4	138.7	115.1	88.23	98.60
470.0	299.6	316.5	440.6	459.1	569.4	720.1	831.6	927.1	 1001	 1036	 1202	 1210	 1368	 1460	 1473	 1543	 1454	 1314	 1179	 1058	990.3	988.9	987.3	971.3	 1013	 1024	 1066	 1085	 1098	 1112	 1118	 1114	 1090	 1100	 1046	976.6	859.8	777.3	670.7	572.3	499.2	470.1	400.1	313.4	260.5	220.2	193.0	151.4	128.0	96.12	85.65
475.0	199.3	221.0	316.7	486.9	565.4	592.8	741.4	803.9	974.6	929.4	 1035	 1110	 1205	 1266	 1334	 1414	 1361	 1209	 1049	985.3	933.2	880.2	862.4	888.1	898.4	910.9	952.3	991.2	 1027	 1003	 1027	 1030	 1021	 1021	983.8	901.6	822.3	730.9	628.9	549.7	478.9	439.2	420.1	349.2	271.2	238.7	201.8	158.9	140.5	114.0	82.64
480.0	199.0	303.3	231.7	389.6	464.4	632.6	664.3	801.1	862.0	888.0	979.8	 1129	 1130	 1202	 1224	 1279	 1293	 1141	 1041	930.4	809.3	783.7	815.5	821.5	851.9	854.9	882.7	902.5	910.3	932.7	940.8	951.8	943.2	935.4	901.3	847.1	773.3	698.9	613.4	546.9	472.8	422.0	394.2	376.3	286.0	234.0	204.6	177.0	150.9	127.4	102.3
485.0	257.8	203.8	259.1	363.0	470.3	551.0	629.3	649.1	741.2	826.3	931.1	994.2	 1083	 1167	 1174	 1255	 1182	 1064	931.3	853.1	797.5	748.9	754.0	760.7	773.2	765.5	822.0	836.1	834.7	861.9	854.2	874.9	861.3	878.3	853.8	806.8	751.9	644.5	591.9	534.9	461.9	415.6	371.6	354.4	318.0	243.6	217.5	183.3	159.2	125.3	103.3
490.0	144.6	211.3	216.0	344.6	475.2	491.9	630.6	639.5	698.3	776.3	880.4	941.9	 1065	 1066	 1131	 1158	 1102	989.3	892.1	774.9	726.3	727.5	696.0	711.8	726.9	746.6	748.5	771.7	772.4	801.9	792.0	814.2	820.2	807.5	798.6	738.1	694.0	612.0	578.3	505.7	459.2	396.6	364.6	322.1	320.6	278.0	222.1	188.8	168.6	139.8	116.2
495.0	144.3	169.3	269.6	351.7	457.9	411.9	615.7	630.3	720.3	726.6	813.9	893.9	948.7	 1025	 1048	 1039	 1021	923.0	845.3	733.3	669.2	684.2	639.2	674.5	655.4	671.4	689.9	707.0	710.6	738.1	721.9	761.2	750.4	754.4	753.3	692.8	648.8	585.9	536.2	484.4	432.4	399.2	353.4	317.0	295.1	285.7	235.9	197.2	173.4	143.3	125.3
500.0	107.2	174.7	190.7	313.2	267.7	453.9	540.1	562.5	636.0	699.5	725.2	797.7	854.0	876.3	 1002	 1013	957.8	886.4	790.0	695.8	623.4	611.3	607.8	593.2	614.7	617.8	616.1	646.2	650.5	662.8	668.5	670.7	680.4	687.0	681.9	639.6	605.2	551.5	508.1	460.8	417.6	375.7	342.1	311.9	280.7	257.3	246.5	205.6	169.8	147.6	126.3
505.0	147.9	188.1	206.5	244.6	427.2	364.7	478.7	511.7	510.2	655.6	668.9	771.5	771.2	841.8	850.8	929.8	873.0	809.3	701.1	639.5	567.7	570.9	593.8	544.6	547.8	550.1	579.7	581.5	575.9	601.2	594.6	605.5	623.0	642.7	619.2	605.1	548.9	507.0	460.9	419.5	389.6	354.5	317.4	303.4	267.8	239.0	234.6	223.9	174.5	151.1	129.0
510.0	174.2	194.0	221.7	230.1	286.7	360.9	448.6	517.7	537.4	534.4	612.9	660.4	699.5	762.0	753.8	799.3	814.3	721.4	658.5	596.7	530.2	507.0	539.1	519.9	486.4	503.7	516.2	518.2	518.6	518.8	547.0	552.1	550.4	571.6	564.2	539.8	497.3	482.7	423.9	391.1	356.4	337.8	308.0	288.3	259.4	227.2	225.3	210.4	187.6	151.1	131.6
515.0	125.7	164.3	160.4	163.8	293.3	296.2	411.3	444.0	456.2	484.4	547.6	609.9	612.0	651.2	681.2	709.1	706.9	664.9	588.0	508.0	470.0	474.2	458.8	451.8	455.2	456.2	463.8	461.0	484.3	490.3	494.9	510.8	492.9	515.2	507.1	511.7	466.2	421.8	401.3	376.5	340.5	315.2	279.9	264.6	239.2	220.3	211.4	188.6	180.4	152.7	138.7
520.0	108.4	176.0	198.2	216.7	238.2	239.8	393.6	413.2	431.0	478.1	459.0	505.0	599.6	661.5	622.8	677.3	622.2	562.1	537.3	478.5	462.0	450.2	404.6	424.2	403.7	399.3	417.8	424.0	429.7	432.5	432.8	453.8	456.0	469.3	438.7	439.0	414.9	384.5	354.7	336.4	302.7	291.3	260.7	252.1	225.9	208.8	185.5	173.7	176.8	166.3	135.6
525.0	93.72	178.8	120.7	207.5	193.9	265.4	358.5	443.8	359.8	419.8	460.1	497.2	526.6	578.3	597.9	586.3	573.9	531.4	496.1	403.4	421.5	378.1	368.7	380.6	379.9	374.2	368.6	379.8	393.7	387.8	389.4	403.5	412.9	421.0	391.8	410.0	392.2	355.6	326.5	308.5	288.7	272.5	249.0	234.0	215.7	184.7	180.3	163.8	153.7	154.0	136.4
530.0	110.7	138.1	122.9	231.6	180.3	272.5	299.9	324.9	283.7	357.7	439.2	445.1	466.8	527.7	560.8	516.3	495.1	483.9	401.2	377.6	354.8	344.2	341.6	345.1	328.3	324.8	337.7	331.4	347.5	351.4	351.5	360.7	358.2	372.8	380.0	357.8	347.3	307.9	297.5	273.8	257.7	239.1	220.1	210.4	193.2	189.3	159.7	156.4	140.5	134.3	133.3
535.0	147.3	141.8	132.1	104.8	179.0	223.1	294.8	344.1	290.0	375.9	346.6	376.2	445.8	429.8	493.0	473.2	461.8	424.3	362.3	352.4	320.1	300.0	286.5	293.0	302.6	303.2	313.3	299.2	320.3	301.1	325.1	330.0	329.2	329.9	329.8	308.3	298.6	287.9	267.5	247.4	234.6	223.9	210.6	193.8	178.3	173.1	140.6	142.8	129.2	120.2	118.4
540.0	52.39	89.46	115.3	163.9	166.0	198.8	210.6	283.9	322.7	319.1	330.6	380.8	392.7	427.8	442.9	452.3	427.0	367.3	323.5	304.3	280.3	292.0	270.1	265.1	254.7	262.6	261.3	272.0	268.6	274.6	278.7	274.3	278.0	292.4	296.6	297.2	269.1	253.1	246.4	231.1	219.5	204.0	185.0	177.9	164.9	155.6	140.9	129.6	115.5	110.2	106.0
545.0	78.85	76.21	96.23	118.2	147.0	154.3	229.9	248.9	242.3	298.5	266.5	305.5	339.9	381.9	412.6	495.3	377.0	338.7	309.2	280.7	245.3	251.0	235.8	236.4	228.8	233.1	240.6	242.3	243.7	237.3	239.7	246.6	263.1	260.2	266.6	262.5	240.7	228.1	223.0	198.9	194.6	184.4	168.7	165.3	150.2	135.6	123.4	125.0	103.3	102.2	91.12
550.0	118.0	120.1	71.25	146.0	175.3	129.3	153.8	225.0	246.2	228.6	270.4	298.7	326.1	320.4	378.1	582.5	406.9	313.2	304.0	274.1	226.5	228.3	219.6	208.8	223.3	214.6	210.8	213.3	214.1	219.1	228.2	232.0	237.6	243.7	234.1	233.2	224.4	199.2	199.5	185.7	185.3	170.0	153.2	146.9	133.9	132.4	124.6	113.4	104.4	103.5	81.08
