Sample:	'SLABO1-5-5-320
File name:	2P11.FD3
Run Date:	16:07:50, 08/17/2022
Operator:	Administrator
Comment:	'

Instrument
Model:	F-7000 FL Spectrophotometer
Serial Number:	2354-007
ROM Version:	5J14000 06

Instrument Parameters
Measurement type:	3-D Scan
Data mode:	Fluorescence
EX  Start WL:	200.0 nm
EX  End WL:	450.0 nm
EX Sampling Interval:	5.0 nm
EM  Start WL:	280.0 nm
EM  End WL:	550.0 nm
EM Sampling Interval:	5.0 nm
Scan speed:	12000 nm/min
EX Slit:	5.0 nm
EM Slit:	5.0 nm
PMT Voltage:	700 V
Response:	Auto 
Corrected spectra:	Off
Shutter control:	On
Contour interval:	25.000

Peak integration
Integration method:	Rectangular
Sensitivity:	1
Threshold:	1.000

Peaks
No.	ApexEX/EM(nm)	Height(Data)
1	205.0/325.0	756.1
2	205.0/350.0	741.2
3	205.0/500.0	252.8
4	205.0/525.0	138.9
5	210.0/415.0	636.6
6	210.0/475.0	426.0
7	210.0/545.0	143.6
8	215.0/320.0	830.8
9	215.0/510.0	310.6
10	215.0/535.0	205.5
11	220.0/490.0	379.1
12	225.0/335.0	 1192
13	225.0/405.0	 1029
14	225.0/505.0	427.9
15	225.0/540.0	181.5
16	230.0/345.0	 1341
17	230.0/390.0	 1027
18	230.0/420.0	 1036
19	235.0/365.0	 1096
20	235.0/405.0	 1071
21	235.0/490.0	506.4
22	240.0/425.0	 1070
23	240.0/545.0	215.6
24	245.0/385.0	 1016
25	245.0/400.0	 1088
26	245.0/415.0	 1106
27	245.0/525.0	318.9
28	250.0/295.0	670.5
29	250.0/405.0	 1108
30	250.0/425.0	 1112
31	255.0/335.0	644.1
32	255.0/420.0	 1083
33	255.0/445.0	 1081
34	260.0/400.0	 1033
35	265.0/415.0	 1110
36	265.0/455.0	 1077
37	270.0/395.0	 1076
38	270.0/410.0	 1127
39	270.0/430.0	 1186
40	275.0/305.0	869.5
41	275.0/390.0	 1103
42	275.0/435.0	 1199
43	280.0/310.0	 1051
44	280.0/345.0	 1023
45	280.0/365.0	 1063
46	280.0/380.0	 1050
47	280.0/400.0	 1128
48	280.0/410.0	 1138
49	280.0/420.0	 1170
50	280.0/445.0	 1165
51	285.0/315.0	 1078
52	285.0/415.0	 1102
53	290.0/320.0	968.3
54	290.0/380.0	 1031
55	300.0/335.0	789.9
56	305.0/340.0	739.5
57	310.0/345.0	693.0
58	315.0/350.0	649.2
59	320.0/360.0	709.7
60	325.0/365.0	758.7
61	325.0/410.0	 1049
62	330.0/370.0	813.2
63	330.0/415.0	 1078
64	335.0/380.0	832.5
65	340.0/385.0	832.6
66	345.0/390.0	823.3
67	345.0/440.0	997.6
68	355.0/405.0	846.9
69	360.0/410.0	849.7
70	390.0/285.0	8.947
71	415.0/340.0	10.98
72	425.0/335.0	10.75
73	425.0/495.0	190.4
74	430.0/505.0	161.0
75	435.0/315.0	8.519
76	445.0/310.0	7.149
77	445.0/525.0	107.0

Data Points
	200.0	205.0	210.0	215.0	220.0	225.0	230.0	235.0	240.0	245.0	250.0	255.0	260.0	265.0	270.0	275.0	280.0	285.0	290.0	295.0	300.0	305.0	310.0	315.0	320.0	325.0	330.0	335.0	340.0	345.0	350.0	355.0	360.0	365.0	370.0	375.0	380.0	385.0	390.0	395.0	400.0	405.0	410.0	415.0	420.0	425.0	430.0	435.0	440.0	445.0	450.0
280.0	80.12	24.56	31.10	47.17	61.15	31.81	29.60	31.68	63.72	156.3	208.9	189.6	117.8	40.58	26.84	 2869	9999.9	 5560	145.0	30.91	33.36	26.70	21.55	18.50	13.66	13.77	10.33	10.51	10.27	9.374	9.532	6.821	7.494	7.959	8.195	8.148	6.713	5.974	6.056	4.400	4.491	3.569	3.354	3.533	2.395	2.406	3.056	2.165	1.940	2.084	1.753
285.0	102.4	181.4	65.79	146.0	136.5	118.6	49.81	71.82	191.2	300.1	427.7	477.1	342.0	168.4	76.21	231.8	 6379	9999.9	9999.9	982.0	43.43	32.93	28.82	27.31	13.91	17.98	15.32	14.51	12.73	10.31	10.30	10.81	9.260	9.460	8.215	8.773	9.013	6.146	8.947	6.329	6.661	4.152	3.803	3.394	2.784	2.588	3.817	2.285	2.261	3.391	3.003
290.0	240.7	255.3	252.0	270.4	288.1	319.7	166.9	156.2	211.5	461.5	620.2	586.6	452.2	412.8	199.1	136.7	520.1	9999.9	9999.9	9999.9	 1276	55.76	52.31	35.33	30.80	18.86	19.44	19.47	12.24	11.31	12.15	11.43	10.75	11.06	8.659	9.767	6.751	6.600	7.548	6.564	6.383	5.888	5.506	4.549	4.003	3.828	3.388	4.011	2.996	3.996	3.076
295.0	412.1	319.4	424.5	452.2	450.6	443.2	332.7	223.0	271.3	565.4	670.5	616.5	409.4	461.6	467.9	286.4	226.2	810.4	9999.9	9999.9	9999.9	 1607	70.95	54.64	40.81	32.62	27.27	21.41	19.04	17.01	12.93	14.55	12.49	11.10	11.11	12.01	8.396	8.024	8.245	7.797	6.117	6.221	5.898	5.489	4.256	4.430	4.125	3.965	3.732	3.656	4.381
300.0	644.4	504.7	515.7	546.1	505.4	540.6	510.8	277.3	316.4	485.8	642.5	526.8	434.8	364.5	572.2	634.2	353.7	304.2	819.3	9999.9	9999.9	9999.9	 1674	92.81	66.66	46.46	35.71	30.16	20.33	19.72	17.54	17.44	13.02	13.64	13.68	11.27	12.56	9.664	8.520	8.703	5.972	5.325	6.030	6.705	6.810	5.181	3.548	4.640	4.962	4.652	3.714
305.0	546.7	693.1	587.4	539.5	609.3	609.7	578.2	382.9	391.5	475.0	572.0	473.6	430.4	388.4	470.6	869.5	703.1	392.7	297.0	814.2	9999.9	9999.9	9999.9	 1921	94.43	75.57	58.60	42.63	29.13	27.21	18.60	19.46	16.66	15.15	15.91	13.68	11.86	10.71	9.713	8.989	6.847	7.238	7.225	7.802	6.165	6.102	5.318	5.562	5.587	5.656	5.567
310.0	700.2	697.7	585.0	720.3	569.2	726.2	654.6	475.9	429.7	469.6	528.3	495.1	437.2	453.8	483.3	630.8	 1051	683.1	342.9	250.8	796.7	9999.9	9999.9	9999.9	 2009	111.6	82.21	67.36	49.98	30.58	23.35	23.33	19.24	17.57	16.66	16.51	12.06	13.03	12.48	10.31	8.831	7.919	8.503	6.979	6.548	6.166	5.477	5.837	7.062	7.149	4.958
315.0	742.5	706.5	642.2	673.1	693.1	842.5	722.6	553.8	445.2	436.3	476.2	508.1	467.8	497.7	565.4	661.6	847.6	 1078	530.0	261.1	230.6	818.5	9999.9	9999.9	9999.9	 1730	117.7	78.47	69.79	48.79	32.13	31.11	24.27	19.37	21.67	16.49	14.20	12.53	12.70	8.259	9.581	6.936	8.015	7.121	7.687	7.065	5.595	8.519	5.968	5.615	4.637
320.0	718.1	654.5	765.1	830.8	721.9	958.5	810.0	600.8	517.2	511.8	514.9	552.7	489.0	544.7	631.8	772.2	757.5	942.1	968.3	413.1	223.2	213.7	841.8	9999.9	9999.9	9999.9	 1734	122.7	95.41	69.80	51.47	36.59	27.72	24.04	22.03	17.00	13.72	13.09	12.77	9.912	10.43	10.36	8.764	8.545	7.349	6.501	7.261	6.305	6.734	5.848	5.048
325.0	498.0	756.1	634.3	659.7	779.2	979.0	979.6	816.2	598.9	559.4	585.3	553.1	535.0	592.3	710.4	833.5	892.1	803.2	906.3	846.4	294.9	210.6	218.8	827.7	9999.9	9999.9	9999.9	 1900	132.2	98.46	72.54	58.99	41.52	29.45	25.05	23.04	15.97	15.33	14.43	12.03	10.47	8.602	9.116	7.773	7.080	7.961	6.733	6.408	6.988	7.181	6.448
330.0	676.7	712.3	740.1	831.2	907.8	 1076	 1045	977.4	719.7	591.6	572.1	575.9	590.6	666.5	753.8	853.6	934.8	877.0	750.8	838.2	627.7	266.4	191.9	205.3	806.7	9999.9	9999.9	9999.9	 1851	151.1	108.4	73.36	58.65	40.71	31.81	26.51	19.13	16.80	15.58	14.27	12.62	11.68	9.939	10.07	8.048	9.732	8.103	7.233	7.663	8.051	7.139
335.0	709.0	730.6	684.8	713.6	864.5	 1192	 1158	 1037	784.4	672.0	620.1	644.1	602.1	657.4	765.9	865.9	989.6	900.9	782.8	652.3	789.9	526.3	223.9	194.8	197.5	826.2	9999.9	9999.9	9999.9	 1978	142.1	106.4	79.84	63.89	40.47	31.62	24.16	19.99	18.19	13.27	12.73	12.26	10.63	10.54	9.238	10.75	7.661	8.471	6.820	8.545	7.850
340.0	637.0	567.1	776.8	766.4	954.0	 1105	 1114	 1080	800.7	665.2	662.0	596.8	637.2	712.2	790.7	921.5	 1017	968.4	852.9	636.7	552.3	739.5	423.7	231.5	181.7	220.3	831.2	9999.9	9999.9	9999.9	 2219	155.8	112.6	82.94	66.40	38.45	29.46	23.23	21.43	14.91	11.40	12.42	9.233	10.98	8.786	8.495	8.043	8.516	7.640	7.949	7.222
345.0	626.0	654.8	661.5	746.9	840.1	 1093	 1341	 1094	902.3	678.2	688.0	644.4	672.1	668.1	811.0	912.9	 1023	962.2	828.3	672.7	516.0	552.5	693.0	372.4	232.1	216.3	225.2	833.2	9999.9	9999.9	9999.9	 2408	173.6	111.8	87.52	66.43	42.98	26.63	24.91	17.97	15.43	10.75	8.439	9.021	9.428	9.073	8.754	8.839	8.320	8.658	7.925
350.0	583.9	741.2	666.5	780.4	861.1	994.7	 1123	 1108	954.7	771.4	726.3	687.1	646.7	730.6	814.9	942.1	956.9	948.3	904.4	744.6	564.8	503.6	573.2	649.2	344.7	256.5	222.6	228.1	826.4	9999.9	9999.9	9999.9	 2489	170.0	115.3	82.24	59.48	40.20	28.49	23.18	17.80	11.67	11.76	10.27	8.727	9.376	9.721	6.112	8.411	8.500	7.909
355.0	370.1	687.6	630.7	645.3	799.2	969.2	 1144	 1084	971.7	804.6	712.4	699.5	802.7	775.7	889.4	 1009	 1037	994.1	932.1	766.2	640.5	538.6	497.8	642.9	613.8	340.0	273.8	231.2	240.6	831.1	9999.9	9999.9	9999.9	 2692	161.5	118.5	78.81	59.39	39.19	27.70	18.78	14.82	12.37	12.51	8.976	9.906	9.426	9.353	7.880	7.322	9.182
360.0	616.4	554.4	548.8	732.9	817.3	974.0	 1063	 1068	974.7	796.8	767.5	736.2	730.3	824.0	888.9	 1008	 1039	986.7	911.3	809.3	699.3	618.6	557.6	519.4	709.7	557.0	365.3	289.1	253.6	241.3	839.6	9999.9	9999.9	9999.9	 2519	173.6	115.2	73.62	56.35	38.06	25.24	19.51	14.74	14.84	10.87	10.24	11.02	9.380	7.702	8.584	7.081
365.0	506.6	506.6	579.4	654.0	890.3	954.8	 1090	 1096	936.7	908.6	738.9	788.7	827.4	845.3	916.7	993.5	 1063	977.6	964.6	857.6	747.8	677.4	614.9	566.9	600.2	758.7	556.9	380.4	303.2	261.4	248.7	828.8	9999.9	9999.9	9999.9	 2779	162.9	106.9	75.50	50.97	34.70	22.25	18.90	14.47	13.00	11.11	9.499	9.308	8.006	8.605	8.978
370.0	600.7	624.2	599.4	699.0	771.8	946.9	984.4	 1050	 1011	897.2	900.5	872.3	818.9	867.4	935.3	986.4	 1055	 1010	967.1	880.0	793.4	691.2	685.4	650.4	629.7	674.9	813.2	545.7	376.3	316.8	252.5	225.8	829.8	9999.9	9999.9	9999.9	 2684	153.7	105.6	73.73	49.10	34.99	24.21	20.47	16.21	12.94	9.662	11.22	9.959	9.598	9.418
375.0	552.7	479.3	651.6	617.5	767.7	908.4	965.1	932.4	973.1	983.9	918.7	882.0	823.7	921.8	932.6	 1000	 1019	959.5	962.2	907.3	792.9	821.2	768.5	727.4	701.8	667.0	735.3	792.5	518.9	383.6	313.1	244.4	244.6	818.1	9999.9	9999.9	9999.9	 2960	146.1	95.13	62.55	44.94	31.75	21.18	16.46	15.44	11.32	10.37	9.800	10.05	8.502
380.0	418.7	552.2	579.2	701.1	912.5	970.0	978.9	989.8	962.4	992.4	946.6	913.4	849.9	933.2	974.1	 1014	 1050	 1001	 1031	889.3	823.2	821.3	826.1	809.6	755.6	732.1	734.0	832.5	725.8	480.1	369.7	293.6	229.7	231.0	823.7	9999.9	9999.9	9999.9	 2654	134.9	91.26	62.03	43.47	31.37	21.76	18.63	15.55	11.93	9.192	9.569	8.676
385.0	455.4	539.2	571.8	887.6	935.1	955.8	994.2	967.4	 1008	 1016	977.1	903.2	859.0	942.9	 1014	 1041	 1044	 1019	995.7	927.6	884.1	901.6	875.6	875.7	828.0	823.9	762.6	737.8	832.6	662.4	471.8	365.9	285.9	236.1	231.9	803.3	9999.9	9999.9	9999.9	 2707	132.6	80.91	59.81	42.47	26.76	20.12	16.44	13.51	11.88	10.40	11.92
390.0	552.5	659.2	684.7	690.3	882.2	898.6	 1027	 1013	991.7	975.1	 1021	963.6	832.4	977.9	996.2	 1103	 1052	 1031	990.4	956.1	899.2	913.4	914.0	903.9	887.6	870.5	835.1	790.2	795.7	823.3	609.0	428.9	364.8	287.7	231.0	233.5	793.4	9999.9	9999.9	9999.9	 2520	122.7	78.76	53.80	41.90	27.25	20.55	13.33	13.33	11.97	9.793
395.0	513.8	531.2	648.6	713.8	957.8	927.0	968.9	 1064	 1035	 1024	 1050	987.1	999.4	982.8	 1076	 1061	 1069	 1053	983.1	937.1	930.8	924.9	958.9	964.4	947.1	925.1	917.3	865.1	802.2	808.5	805.5	589.8	455.8	379.7	288.9	228.4	221.3	790.4	9999.9	9999.9	9999.9	 2546	108.6	68.04	53.52	37.67	28.18	20.57	16.63	12.22	10.19
400.0	434.0	548.7	491.8	747.8	881.6	964.1	 1025	 1059	 1047	 1088	 1039	944.8	 1033	981.0	 1056	 1065	 1128	 1081	 1019	995.6	946.6	967.6	983.5	998.9	979.2	963.9	977.4	948.7	869.2	815.9	829.8	781.3	564.7	440.1	368.9	291.9	223.9	205.7	780.6	9999.9	9999.9	9999.9	 2233	103.5	69.57	46.89	38.52	25.14	19.39	16.98	13.71
405.0	327.8	594.1	614.0	704.7	851.2	 1029	976.4	 1071	993.7	988.2	 1108	 1042	 1000	 1054	 1095	 1058	 1091	 1076	 1017	989.2	975.7	967.7	990.9	 1001	 1028	 1017	 1010	982.3	911.2	854.3	802.2	846.9	747.7	536.4	438.1	353.0	260.9	216.7	191.0	771.2	9999.9	9999.9	9999.9	 2036	90.14	66.44	43.27	32.07	24.50	17.50	13.28
410.0	418.4	526.3	606.2	748.8	702.6	 1000	959.9	 1060	 1063	 1033	 1040	 1033	 1119	 1106	 1127	 1108	 1138	 1077	 1030	994.5	988.6	962.4	 1001	993.9	 1033	 1049	 1016	 1027	982.2	922.5	846.1	792.2	849.7	691.8	530.6	417.4	302.7	232.1	182.3	190.7	754.2	9999.9	9999.9	9999.9	 1876	89.16	62.31	42.08	28.67	22.90	15.43
415.0	397.8	545.7	636.6	561.9	829.1	808.9	 1027	 1073	 1104	 1106	 1056	 1031	 1091	 1110	 1084	 1144	 1074	 1102	 1078	988.0	950.5	978.4	991.7	993.5	 1022	 1023	 1078	 1050	 1027	984.4	899.5	840.3	832.4	839.8	625.4	464.6	368.5	285.9	233.2	170.7	164.7	746.8	9999.9	9999.9	9999.9	 1868	81.53	55.53	38.92	29.70	20.74
420.0	348.9	411.7	548.6	624.9	699.8	908.0	 1036	977.5	 1040	 1101	 1034	 1083	 1072	 1082	 1138	 1134	 1170	 1050	 1024	990.9	964.0	948.7	985.0	 1001	 1014	 1034	 1068	 1057	 1025	998.7	952.9	884.3	808.6	824.6	770.9	560.4	422.9	331.3	254.0	194.6	147.5	150.0	730.2	9999.9	9999.9	9999.9	 1659	78.04	50.85	33.96	27.59
425.0	357.4	350.8	512.1	670.8	823.1	890.7	983.6	 1056	 1070	 1057	 1112	993.4	 1086	 1123	 1135	 1160	 1135	 1115	995.9	950.2	901.0	905.7	954.4	967.9	 1005	 1042	 1051	 1035	 1030	997.0	973.0	893.3	838.8	781.1	778.5	682.0	474.8	361.3	289.8	217.8	165.7	129.8	144.4	715.9	9999.9	9999.9	9999.9	 1423	69.54	49.00	32.77
430.0	410.3	344.7	505.3	539.7	760.7	913.0	940.4	983.8	 1045	 1036	 1039	968.8	 1108	 1141	 1186	 1153	 1154	 1074	984.9	935.3	937.4	914.6	935.6	949.2	964.5	 1011	 1035	 1006	 1016	998.7	945.1	914.0	864.0	812.2	739.2	719.6	569.0	408.0	320.2	235.4	185.6	148.9	119.5	133.2	711.8	9999.9	9999.9	9999.9	 1277	69.58	44.09
435.0	405.9	478.6	592.7	768.7	720.6	782.6	913.7	913.2	 1010	 1044	 1037	 1065	 1122	 1132	 1129	 1199	 1161	 1071	952.0	899.1	880.6	882.9	912.4	927.9	961.6	995.9	998.8	 1002	997.8	985.7	941.3	924.1	877.7	801.4	761.4	698.2	643.6	474.7	356.0	273.8	216.2	162.5	129.5	110.4	124.9	707.0	9999.9	9999.9	9999.9	 1242	63.86
440.0	421.7	434.7	472.8	527.1	671.3	779.2	858.7	909.7	966.2	 1019	982.4	 1027	 1023	 1097	 1095	 1164	 1154	 1037	951.6	891.7	873.9	837.4	887.9	905.9	930.2	946.7	963.6	960.9	981.0	997.6	930.6	931.6	878.8	838.0	746.4	655.3	611.1	554.0	395.1	291.6	233.7	191.7	145.8	118.1	95.46	122.4	704.7	9999.9	9999.9	9999.9	 1101
445.0	254.6	252.1	497.2	561.9	578.1	880.0	803.3	911.1	924.6	 1041	 1014	 1081	 1005	 1045	 1123	 1112	 1165	981.6	921.3	809.9	814.4	805.2	828.2	829.2	882.3	918.2	928.6	937.3	944.1	952.7	905.8	882.2	856.3	811.7	766.0	674.8	574.1	544.2	476.8	335.6	245.9	208.5	164.4	138.9	109.7	89.68	119.0	698.5	9999.9	9999.9	9999.9
450.0	422.6	377.8	515.8	529.0	611.4	718.7	792.8	847.1	851.0	911.3	 1003	968.3	993.7	970.8	 1090	 1080	 1031	979.7	893.3	783.2	806.5	786.7	747.3	805.2	830.4	834.0	872.7	889.6	906.7	900.3	883.5	863.4	820.7	804.9	747.1	673.7	579.7	510.3	477.2	380.6	279.9	224.2	184.7	144.5	120.5	100.9	83.90	108.1	698.9	9999.9	9999.9
455.0	342.5	368.9	487.7	507.9	658.7	692.7	703.7	817.6	857.4	900.3	915.5	964.3	 1007	 1077	 1015	 1042	998.5	920.4	816.0	771.7	747.6	737.0	726.8	742.4	759.2	793.3	831.7	841.3	872.6	845.3	843.2	816.5	799.5	763.0	712.7	640.3	564.9	478.2	453.1	408.7	321.4	238.3	201.3	166.3	129.4	114.3	94.75	80.79	108.7	694.8	9999.9
460.0	327.5	282.6	357.4	557.1	585.7	632.1	715.0	671.8	730.0	813.6	883.4	940.7	919.2	917.3	 1006	 1033	969.7	884.2	802.1	707.3	682.7	670.2	702.1	729.0	735.9	740.1	780.3	784.7	797.3	771.1	778.7	768.9	767.0	731.7	683.4	630.9	550.5	479.5	401.5	383.4	360.0	271.5	213.1	173.9	146.9	116.4	98.49	83.67	70.28	104.6	693.3
465.0	297.7	354.5	374.8	605.1	610.4	623.4	624.8	689.6	739.1	799.0	822.8	843.3	928.2	915.8	940.4	947.7	893.0	841.1	734.2	659.5	660.0	662.4	634.4	634.5	652.4	682.7	700.9	704.5	732.9	734.1	719.7	726.3	721.1	680.5	649.6	612.1	529.8	447.2	402.7	344.3	339.7	307.3	226.6	185.9	154.3	133.9	108.8	88.50	76.82	68.54	103.2
470.0	401.6	339.8	379.0	410.7	455.1	569.5	567.1	642.7	682.2	709.3	721.0	793.4	799.5	841.5	902.3	866.1	857.0	772.8	692.3	633.4	625.3	596.6	592.1	610.3	628.6	604.8	627.8	676.8	662.3	669.5	680.4	665.5	663.7	645.6	619.9	575.3	477.7	438.1	386.8	331.2	305.5	307.8	256.4	193.3	162.8	139.0	116.7	102.8	84.49	75.89	60.73
475.0	273.6	255.8	426.0	417.6	364.6	506.0	552.0	650.6	612.9	644.5	677.8	719.1	722.4	770.0	768.3	821.9	769.6	713.7	657.8	565.5	561.0	544.8	529.0	554.5	546.5	580.1	588.6	591.7	615.6	606.2	632.1	608.4	607.0	594.7	574.5	515.1	489.8	423.2	367.3	329.2	281.4	264.8	273.7	213.3	164.4	137.3	120.9	96.93	86.89	75.36	62.76
480.0	208.8	261.5	321.6	345.5	342.5	446.1	523.3	477.8	542.3	641.5	638.7	647.3	705.1	753.5	768.8	737.5	746.7	641.6	584.5	525.8	497.3	516.9	504.5	505.0	533.3	520.9	522.4	544.6	555.0	580.4	554.5	571.7	578.4	557.3	527.0	490.1	446.7	404.7	355.7	316.3	278.6	246.1	245.5	233.4	183.1	151.2	122.8	104.7	96.92	78.52	65.98
485.0	237.3	229.8	324.0	311.8	356.7	472.6	516.4	479.9	574.6	555.9	588.1	601.4	635.9	652.2	682.8	725.6	670.0	654.9	595.3	505.4	483.4	465.5	469.2	483.3	487.5	505.4	487.7	493.8	510.4	519.1	525.7	525.7	533.9	510.8	497.1	460.6	422.9	382.7	349.0	294.6	273.8	233.8	229.1	227.2	201.5	160.2	130.4	111.7	95.28	82.04	70.22
490.0	298.3	276.7	306.5	350.3	379.1	339.0	473.4	506.4	489.2	479.8	553.4	622.7	589.5	662.0	657.6	671.5	620.0	559.6	553.7	476.1	450.6	442.6	438.6	438.1	448.5	458.7	442.5	467.3	470.7	490.2	487.3	479.0	481.7	480.2	454.0	441.9	402.7	364.2	343.7	286.5	269.8	241.0	222.8	204.7	213.5	170.3	131.8	112.5	97.69	81.01	72.61
495.0	202.3	226.8	299.6	280.6	312.9	432.3	448.2	420.9	446.8	524.3	566.3	552.6	561.8	590.7	644.1	603.9	606.2	563.8	487.4	459.8	409.8	416.8	430.8	402.4	415.9	399.4	415.5	420.2	430.6	449.4	437.8	444.0	448.6	447.3	439.0	409.9	385.2	354.6	320.3	282.0	255.7	233.0	201.9	185.9	185.1	190.4	153.8	115.7	108.0	92.35	74.87
500.0	185.6	252.8	117.8	255.5	313.4	378.7	403.8	400.6	408.8	463.3	514.5	495.4	521.7	575.5	579.3	546.1	529.4	474.6	437.7	426.1	403.1	380.8	376.8	373.2	380.3	364.4	388.8	398.5	398.2	401.7	411.5	422.7	406.4	408.2	395.2	391.1	353.4	313.7	291.5	266.3	239.9	225.4	194.9	181.7	170.1	174.1	150.5	130.7	107.7	85.83	82.15
505.0	169.6	206.1	213.3	243.9	238.6	427.9	352.4	401.3	406.9	436.1	393.5	473.9	472.6	530.0	535.2	506.7	488.3	463.9	400.3	397.7	368.3	344.3	340.7	344.8	347.5	353.9	359.4	354.8	372.4	361.5	371.8	375.0	377.4	378.6	364.5	337.8	322.2	286.3	270.5	253.0	228.5	199.7	186.1	175.3	153.8	154.8	161.0	146.8	111.3	92.29	78.48
510.0	110.4	119.1	194.0	310.6	203.3	335.1	284.7	331.6	398.3	385.9	392.7	416.3	425.4	482.0	486.6	488.2	439.0	430.6	370.9	345.0	312.6	337.7	331.7	307.0	304.8	322.2	317.1	315.4	322.6	331.5	339.8	322.9	340.2	340.1	330.3	322.6	294.6	268.6	253.7	230.8	215.7	194.8	178.1	164.2	153.8	145.2	131.8	137.1	121.9	95.29	79.33
515.0	163.8	150.3	177.4	251.8	221.3	210.0	284.8	300.1	291.1	355.4	390.5	378.7	393.4	434.2	444.2	459.0	420.2	390.7	343.6	325.4	291.4	288.6	278.4	280.8	274.1	275.6	284.5	291.1	295.8	304.0	296.8	295.9	311.4	316.0	318.8	287.9	274.1	245.3	226.8	212.2	199.0	184.1	162.9	163.6	147.1	134.5	117.7	128.5	125.6	95.93	79.43
520.0	62.16	119.9	147.2	184.8	181.2	181.1	244.5	286.8	283.6	285.9	341.3	337.1	377.9	413.7	409.6	408.4	355.5	356.8	330.0	285.7	276.0	275.4	265.4	252.4	255.9	250.6	272.6	260.1	260.6	277.1	264.8	266.3	274.3	277.1	280.5	263.4	245.2	225.7	215.6	203.9	182.0	171.6	156.3	148.4	138.3	133.9	109.9	104.3	116.9	104.0	90.43
525.0	89.55	138.9	120.0	114.5	198.6	194.5	251.3	258.9	283.8	318.9	299.0	339.1	322.0	377.0	349.6	372.0	332.1	314.0	271.9	252.7	244.7	238.2	225.9	233.0	235.6	233.7	232.1	231.5	238.7	245.1	234.7	242.5	250.9	245.7	242.6	238.6	226.2	199.5	193.5	178.4	164.5	165.7	148.8	136.3	126.0	116.6	104.1	100.7	98.06	107.0	91.00
530.0	125.7	104.5	155.7	154.8	179.4	193.9	247.9	241.0	232.3	267.8	284.4	315.0	291.1	300.7	330.0	322.7	327.6	305.6	266.8	234.6	214.2	224.9	203.2	196.9	213.7	202.4	209.4	206.5	212.8	214.2	220.3	221.6	212.7	224.3	212.5	215.0	207.3	187.2	164.2	159.9	152.1	141.1	130.9	114.9	114.9	101.1	95.89	91.48	82.51	86.90	90.18
535.0	69.52	129.1	113.7	205.5	137.8	159.5	175.0	173.2	212.5	255.6	243.0	276.8	272.9	302.1	350.1	309.6	294.9	266.3	250.9	222.3	214.2	197.5	184.6	185.7	183.3	180.8	191.1	177.6	174.4	185.8	191.4	198.8	201.2	198.9	198.7	190.0	182.5	169.0	155.3	146.1	141.1	125.4	124.5	114.8	108.3	94.63	92.08	87.53	78.46	77.29	81.79
540.0	104.1	122.2	132.2	161.7	165.1	181.5	170.4	186.5	190.1	201.1	240.5	247.0	218.9	262.6	342.6	306.2	263.9	250.8	227.1	197.5	187.9	179.0	168.5	168.8	166.1	160.1	167.3	166.0	173.5	166.9	169.2	162.1	175.7	171.2	177.7	167.4	159.4	139.2	134.4	128.4	120.4	114.3	111.3	100.2	92.70	93.01	82.10	75.24	71.90	68.77	68.50
545.0	109.7	76.80	143.6	122.6	83.54	100.1	130.7	174.6	215.6	172.1	200.1	188.9	211.5	227.6	373.5	460.9	261.4	210.7	218.4	193.4	173.0	159.1	151.9	152.4	152.3	143.3	150.8	141.2	150.0	141.9	144.8	150.3	156.4	148.2	143.6	143.8	143.8	129.2	125.3	127.2	103.6	99.75	94.72	90.62	81.33	82.21	79.20	75.22	69.33	66.42	62.79
550.0	93.12	94.07	65.37	112.2	100.3	141.1	165.3	162.3	178.1	142.2	194.1	173.9	195.5	209.7	245.7	839.6	387.8	190.8	193.9	179.6	150.5	148.6	146.6	133.6	142.8	137.9	140.9	132.7	139.9	129.9	133.7	134.9	147.0	135.6	136.2	126.6	125.1	118.0	109.7	106.6	95.56	94.21	92.84	83.82	80.69	78.29	72.12	68.17	65.42	61.64	53.73
