Sample:	'SLABO1-5-5-320
File name:	2P2.FD3
Run Date:	15:23:57, 08/17/2022
Operator:	Administrator
Comment:	'

Instrument
Model:	F-7000 FL Spectrophotometer
Serial Number:	2354-007
ROM Version:	5J14000 06

Instrument Parameters
Measurement type:	3-D Scan
Data mode:	Fluorescence
EX  Start WL:	200.0 nm
EX  End WL:	450.0 nm
EX Sampling Interval:	5.0 nm
EM  Start WL:	280.0 nm
EM  End WL:	550.0 nm
EM Sampling Interval:	5.0 nm
Scan speed:	12000 nm/min
EX Slit:	5.0 nm
EM Slit:	5.0 nm
PMT Voltage:	700 V
Response:	Auto 
Corrected spectra:	Off
Shutter control:	On
Contour interval:	25.000

Peak integration
Integration method:	Rectangular
Sensitivity:	1
Threshold:	1.000

Peaks
No.	ApexEX/EM(nm)	Height(Data)
1	205.0/320.0	941.4
2	205.0/455.0	573.8
3	205.0/500.0	347.2
4	210.0/360.0	800.7
5	210.0/400.0	808.0
6	210.0/505.0	326.0
7	210.0/530.0	237.2
8	215.0/350.0	854.4
9	215.0/380.0	830.9
10	225.0/340.0	 1046
11	225.0/385.0	985.2
12	225.0/405.0	 1078
13	225.0/470.0	699.8
14	230.0/345.0	 1041
15	230.0/360.0	 1049
16	230.0/375.0	 1007
17	230.0/510.0	440.4
18	235.0/400.0	 1109
19	235.0/435.0	 1098
20	235.0/495.0	627.1
21	235.0/545.0	240.2
22	240.0/380.0	986.4
23	240.0/525.0	397.4
24	245.0/375.0	924.4
25	245.0/390.0	 1037
26	245.0/400.0	 1119
27	245.0/410.0	 1142
28	245.0/430.0	 1151
29	250.0/420.0	 1193
30	270.0/430.0	 1327
31	275.0/305.0	827.2
32	275.0/425.0	 1320
33	275.0/440.0	 1344
34	280.0/310.0	918.5
35	280.0/450.0	 1282
36	285.0/315.0	892.3
37	290.0/320.0	813.6
38	295.0/330.0	695.9
39	300.0/335.0	691.8
40	305.0/340.0	665.2
41	305.0/415.0	 1017
42	310.0/345.0	628.6
43	310.0/410.0	 1026
44	315.0/350.0	617.7
45	315.0/420.0	 1043
46	320.0/360.0	651.3
47	320.0/435.0	 1002
48	325.0/365.0	721.0
49	325.0/425.0	 1029
50	330.0/370.0	745.5
51	330.0/420.0	 1050
52	335.0/380.0	792.8
53	335.0/430.0	 1009
54	340.0/385.0	814.9
55	340.0/440.0	975.7
56	345.0/390.0	823.3
57	355.0/405.0	842.8
58	360.0/410.0	849.5
59	365.0/290.0	20.92
60	365.0/415.0	859.6
61	410.0/315.0	13.99
62	430.0/290.0	6.986
63	435.0/350.0	14.16
64	440.0/325.0	12.00
65	445.0/350.0	13.20

Data Points
	200.0	205.0	210.0	215.0	220.0	225.0	230.0	235.0	240.0	245.0	250.0	255.0	260.0	265.0	270.0	275.0	280.0	285.0	290.0	295.0	300.0	305.0	310.0	315.0	320.0	325.0	330.0	335.0	340.0	345.0	350.0	355.0	360.0	365.0	370.0	375.0	380.0	385.0	390.0	395.0	400.0	405.0	410.0	415.0	420.0	425.0	430.0	435.0	440.0	445.0	450.0
280.0	30.84	24.35	87.90	83.76	19.92	65.56	29.30	24.69	15.10	53.20	54.11	88.00	48.76	18.10	18.74	 3878	9999.9	 7431	172.0	40.72	44.69	41.04	31.25	22.58	16.41	18.02	18.99	20.80	16.56	14.30	14.66	16.95	15.11	14.67	13.45	12.67	12.06	9.434	9.486	9.660	6.706	5.580	5.875	4.909	5.164	5.358	4.065	3.908	3.113	2.697	3.194
285.0	234.7	175.4	145.1	129.0	205.2	167.2	95.44	48.10	71.65	92.26	141.2	162.7	189.6	94.17	66.57	300.1	 8691	9999.9	9999.9	 1283	57.40	57.26	47.75	37.17	27.33	26.65	23.31	20.25	19.09	14.87	16.75	17.35	13.16	14.84	12.52	13.98	10.05	9.754	11.08	8.839	9.097	6.553	7.568	7.050	5.504	4.198	5.101	4.663	3.570	3.548	3.857
290.0	368.0	315.3	319.0	299.0	333.0	385.8	211.7	136.0	115.1	155.8	223.2	208.8	182.6	303.9	198.9	127.1	669.0	9999.9	9999.9	9999.9	 1696	79.58	67.04	52.30	45.03	30.58	26.90	27.07	21.41	21.26	16.88	18.28	20.61	20.92	17.89	13.22	14.83	12.35	12.40	10.65	8.546	7.658	7.591	6.238	6.868	5.016	6.986	5.216	5.171	4.727	4.456
295.0	621.2	504.3	440.2	528.5	538.7	552.5	413.9	265.7	191.5	191.8	251.2	270.9	203.0	329.9	449.7	294.3	263.1	829.6	9999.9	9999.9	9999.9	 2161	96.85	82.22	65.19	54.76	39.44	31.43	26.88	21.06	25.70	19.92	20.15	19.52	20.78	16.47	16.25	14.97	12.39	11.57	10.12	10.11	9.047	8.185	6.560	6.941	5.149	5.849	6.504	6.155	4.653
300.0	811.1	675.5	627.5	486.4	710.1	672.1	508.3	292.9	218.3	232.8	260.8	277.0	281.0	310.8	511.2	583.5	337.3	287.8	863.1	9999.9	9999.9	9999.9	 2281	123.2	99.08	85.36	60.62	44.54	40.62	32.12	32.36	22.05	21.77	21.43	22.82	19.11	15.40	17.01	13.64	13.19	10.62	9.598	10.37	9.723	8.102	7.573	7.519	5.895	7.339	7.115	6.150
305.0	924.2	842.4	769.8	657.2	738.0	667.0	573.8	374.2	270.8	249.6	297.9	306.2	302.2	366.2	413.9	827.2	656.6	338.7	273.4	840.2	9999.9	9999.9	9999.9	 2682	150.3	117.3	92.59	68.67	50.34	37.45	36.53	26.95	29.42	25.49	22.97	20.88	17.61	16.03	16.79	14.48	11.80	10.06	11.40	10.73	8.831	7.984	8.341	7.534	6.978	7.166	7.375
310.0	828.9	811.6	779.3	770.1	754.0	749.5	621.8	429.2	318.1	290.6	303.7	327.6	363.5	389.5	474.4	596.9	918.5	560.0	287.2	252.9	860.7	9999.9	9999.9	9999.9	 2865	163.4	134.2	105.4	73.24	55.23	43.76	34.12	32.71	28.39	26.09	22.67	18.18	19.24	18.25	15.39	15.17	12.42	11.06	10.57	10.05	10.75	11.00	9.181	7.903	8.167	7.724
315.0	784.6	897.7	784.0	729.3	745.2	782.8	681.4	437.1	346.1	334.6	351.8	364.7	381.8	434.2	490.4	546.0	627.7	892.3	426.5	241.0	237.8	870.0	9999.9	9999.9	9999.9	 2584	183.7	144.2	115.3	78.80	54.16	43.70	40.57	34.24	31.10	25.81	24.04	22.26	17.93	15.53	14.23	12.50	13.99	11.25	11.09	10.22	9.005	8.330	8.600	7.994	7.077
320.0	737.0	941.4	812.2	826.5	780.6	832.3	706.7	524.3	367.4	391.8	398.0	392.1	414.2	458.2	527.4	609.0	595.5	733.1	813.6	326.0	210.3	243.0	914.7	9999.9	9999.9	9999.9	 2557	213.6	153.3	109.9	84.62	59.25	47.36	41.65	39.88	28.91	25.56	19.93	21.15	19.38	15.27	14.34	13.14	13.02	11.39	10.15	10.83	9.564	9.167	9.064	8.858
325.0	646.6	882.6	740.9	722.8	843.5	883.8	790.0	691.9	492.7	369.4	388.9	424.6	449.8	522.8	554.4	653.6	675.7	637.4	773.3	681.8	284.0	234.4	254.2	927.6	9999.9	9999.9	9999.9	 2863	217.0	158.5	122.9	87.81	67.38	42.95	43.48	33.26	28.71	28.06	24.10	19.51	18.36	15.40	11.57	14.86	12.97	11.49	11.34	10.31	12.00	8.698	8.362
330.0	919.7	831.0	765.3	728.3	939.8	 1008	861.3	744.5	616.0	442.2	450.2	453.4	462.4	509.0	593.5	685.5	731.7	680.2	586.6	695.9	593.0	273.9	202.6	250.5	901.7	9999.9	9999.9	9999.9	 2954	248.0	169.3	136.1	101.9	67.94	50.86	39.72	32.98	28.59	24.14	21.87	16.42	16.88	16.89	15.00	13.86	11.17	9.896	11.89	9.614	11.55	9.833
335.0	686.9	725.5	723.1	758.4	844.1	 1001	988.1	796.8	661.2	555.0	464.0	477.9	477.7	533.0	675.1	684.9	774.0	723.3	621.9	518.4	691.8	480.8	247.7	222.5	247.9	926.5	9999.9	9999.9	9999.9	 3095	250.7	178.4	132.0	100.6	71.39	56.20	41.78	34.34	28.17	22.51	19.59	18.06	15.06	13.24	12.92	12.26	12.00	11.46	9.974	10.24	10.56
340.0	760.4	645.3	772.7	866.1	859.7	 1046	 1026	888.9	649.5	540.2	510.1	483.7	532.5	552.8	669.1	741.8	800.4	725.0	661.3	522.3	504.1	665.2	409.2	252.5	225.3	256.4	920.9	9999.9	9999.9	9999.9	 3508	267.3	197.4	140.8	109.3	71.68	53.59	39.48	33.04	26.02	21.79	16.08	16.41	16.88	14.61	13.14	13.10	11.81	11.70	12.60	10.28
345.0	788.8	642.7	747.5	699.7	860.0	 1023	 1041	992.2	764.2	624.9	519.5	519.6	555.1	562.1	664.3	765.5	799.4	748.6	695.8	589.3	466.9	520.4	628.6	355.2	237.0	228.1	265.1	916.0	9999.9	9999.9	9999.9	 3952	275.6	208.3	149.2	108.7	71.07	49.05	38.53	31.12	24.11	20.02	19.33	16.01	15.00	13.51	12.91	11.84	11.56	11.52	10.44
350.0	739.3	644.0	755.4	854.4	761.9	904.3	 1024	912.9	745.8	682.9	562.7	543.7	548.2	592.5	677.7	812.6	822.6	789.8	738.2	619.0	520.2	424.6	559.6	617.7	348.8	259.2	253.6	279.5	933.1	9999.9	9999.9	9999.9	 4127	296.8	218.5	148.5	104.0	66.71	50.26	36.07	25.44	24.83	20.17	14.69	15.68	12.29	12.84	14.16	12.15	13.20	11.02
355.0	667.4	690.5	748.0	744.9	897.2	979.0	915.9	916.3	784.8	761.7	676.5	581.7	644.5	634.1	733.6	809.1	812.5	856.6	742.4	671.0	564.6	478.6	462.0	612.0	592.5	356.3	313.8	270.8	298.1	944.6	9999.9	9999.9	9999.9	 4404	296.8	206.2	143.5	105.1	68.38	44.40	35.10	27.77	21.41	20.46	16.68	14.13	13.85	12.87	13.59	12.66	12.37
360.0	728.3	771.7	800.7	728.7	778.5	999.9	 1049	922.6	836.2	751.4	698.5	637.9	672.0	655.3	776.0	801.5	837.1	871.6	793.7	706.5	612.0	548.8	492.1	504.4	651.3	548.7	394.5	320.9	296.8	308.3	941.7	9999.9	9999.9	9999.9	 4188	298.2	208.7	136.0	97.43	63.44	44.21	33.63	25.62	21.76	19.70	14.37	13.32	13.03	12.53	10.09	12.10
365.0	523.1	697.2	692.6	883.5	890.5	957.6	987.1	961.6	867.7	807.5	735.5	703.1	689.4	790.2	819.9	884.9	893.0	891.9	811.2	722.8	666.0	612.6	576.2	557.1	571.9	721.0	545.7	382.7	353.9	307.4	309.0	928.9	9999.9	9999.9	9999.9	 4713	281.8	190.0	132.8	90.35	60.27	41.54	34.38	27.10	21.63	16.85	16.03	14.16	13.23	15.25	11.58
370.0	615.0	757.7	743.3	765.5	901.3	893.1	 1003	983.1	986.8	867.9	780.9	777.4	818.0	785.4	895.7	851.2	929.6	910.7	856.9	759.2	705.0	650.3	633.2	599.3	586.5	648.6	745.5	541.5	417.2	333.7	310.3	306.8	942.5	9999.9	9999.9	9999.9	 4589	264.2	180.1	121.5	81.95	60.47	39.16	31.48	23.72	19.69	17.54	14.23	13.66	14.53	11.96
375.0	612.5	748.4	702.6	779.6	888.1	929.4	 1007	 1007	868.8	924.4	913.4	841.7	825.4	853.8	925.8	969.4	970.6	942.6	867.6	806.5	769.3	706.6	695.9	684.0	657.1	638.4	708.0	760.6	543.0	417.6	353.0	290.4	308.2	934.9	9999.9	9999.9	9999.9	 5005	255.1	173.6	111.6	83.14	56.23	39.86	29.13	23.91	19.01	18.25	15.27	15.22	12.92
380.0	659.0	729.0	765.9	830.9	774.3	928.4	977.9	948.5	986.4	850.6	918.1	875.4	821.1	888.7	958.4	 1035	 1014	954.3	939.9	822.0	794.7	755.1	775.4	741.9	699.6	702.6	682.1	792.8	741.9	508.7	423.1	342.0	294.4	310.5	944.7	9999.9	9999.9	9999.9	 4482	238.9	158.9	108.6	76.03	55.18	37.61	28.56	22.61	19.13	14.39	15.62	13.15
385.0	559.8	594.1	804.0	732.8	918.2	985.2	888.2	969.7	907.4	962.8	917.1	896.3	928.3	954.9	 1005	 1028	 1039	997.8	980.0	886.9	822.2	830.7	812.5	796.8	829.2	784.9	767.5	744.5	814.9	686.4	502.2	418.3	353.1	310.4	307.9	910.5	9999.9	9999.9	9999.9	 4632	230.6	150.2	93.70	70.24	49.97	35.39	30.26	21.31	15.97	14.66	14.33
390.0	752.5	637.9	654.2	750.3	905.0	866.3	970.1	970.4	989.0	 1037	991.8	983.3	984.9	954.7	 1024	 1058	 1106	 1010	986.3	950.1	880.3	864.1	889.3	869.2	861.1	868.5	809.4	772.9	763.0	823.3	641.2	481.9	411.7	347.2	302.4	305.1	912.1	9999.9	9999.9	9999.9	 4411	210.7	134.1	95.39	66.33	47.76	37.09	27.71	21.24	17.24	14.49
395.0	680.6	595.9	638.6	742.5	919.0	 1023	942.1	 1035	947.7	984.3	 1060	 1046	 1041	 1021	 1084	 1122	 1102	 1065	 1014	968.6	912.5	918.1	905.4	878.0	930.9	895.7	894.7	831.3	793.2	809.9	813.7	595.9	490.4	404.4	359.6	299.6	304.7	884.9	9999.9	9999.9	9999.9	 4424	200.5	127.3	86.15	60.96	45.45	29.35	27.44	18.77	14.76
400.0	591.4	704.8	808.0	751.3	894.3	996.3	973.5	 1109	 1012	 1119	 1074	 1047	 1070	 1086	 1136	 1181	 1136	 1100	 1073	 1012	960.7	950.8	946.4	960.9	964.6	941.7	931.3	894.5	866.5	817.1	817.3	787.2	585.5	476.0	421.2	345.1	284.7	293.0	890.1	9999.9	9999.9	9999.9	 3904	183.5	119.7	83.47	59.51	42.10	28.26	25.22	20.43
405.0	645.2	575.5	650.5	708.5	837.8	 1078	952.9	938.3	 1086	 1056	 1072	 1083	 1086	 1151	 1174	 1183	 1171	 1149	 1050	 1019	996.3	958.3	962.7	996.9	992.1	975.4	957.8	958.9	905.4	843.7	797.4	842.8	758.5	573.5	480.4	420.7	319.4	269.2	287.1	858.1	9999.9	9999.9	9999.9	 3482	171.9	114.0	76.92	55.19	38.99	28.81	21.55
410.0	366.5	639.1	705.8	749.4	896.6	933.1	 1024	998.5	 1119	 1142	 1105	 1087	 1168	 1242	 1186	 1246	 1199	 1122	 1109	 1025	992.1	994.7	 1026	 1014	 1002	 1004	 1007	976.5	944.8	893.8	844.9	827.0	849.5	735.3	543.1	464.5	381.3	306.1	258.0	255.0	850.9	9999.9	9999.9	9999.9	 3241	160.4	99.01	72.50	49.65	36.92	26.59
415.0	615.7	610.2	718.0	695.5	847.0	893.5	908.7	 1023	 1103	 1075	 1130	 1140	 1207	 1257	 1277	 1254	 1222	 1172	 1128	 1041	994.5	 1017	 1007	 1024	 1014	 1014	 1022	 1010	985.8	932.4	887.2	809.4	827.8	859.6	661.7	527.0	441.7	348.3	294.9	245.4	231.7	830.8	9999.9	9999.9	9999.9	 3270	152.8	94.02	65.69	48.59	34.35
420.0	461.9	554.5	654.3	731.4	889.4	843.9	988.0	 1015	 1114	 1080	 1193	 1118	 1147	 1204	 1293	 1316	 1210	 1184	 1105	 1041	 1018	 1001	 1028	 1043	 1032	 1009	 1050	 1010	977.8	967.2	902.1	853.2	796.2	842.5	816.8	600.2	484.4	388.4	312.0	254.4	199.5	219.4	812.1	9999.9	9999.9	9999.9	 2835	135.2	89.56	63.81	49.52
425.0	381.8	694.1	651.3	788.0	811.1	930.7	998.5	 1019	 1116	 1118	 1108	 1136	 1246	 1253	 1272	 1320	 1228	 1171	 1106	 1025	989.4	 1011	 1017	999.9	 1018	 1029	 1022	999.1	989.2	961.4	918.8	874.6	844.0	803.4	805.7	721.4	531.4	437.2	348.7	285.9	228.2	185.5	198.0	795.4	9999.9	9999.9	9999.9	 2441	132.8	84.40	58.98
430.0	460.2	590.3	691.9	758.4	786.3	846.2	 1031	 1079	 1024	 1151	 1078	 1180	 1230	 1312	 1327	 1262	 1243	 1200	 1101	 1053	 1000	976.4	966.1	988.4	976.9	996.6	 1000	 1009	990.6	976.8	924.4	875.2	855.5	807.6	762.2	749.1	609.3	470.2	401.5	305.9	252.4	203.5	176.5	199.4	776.1	9999.9	9999.9	9999.9	 2187	122.8	79.58
435.0	548.1	542.4	603.7	699.3	754.9	858.4	999.7	 1098	 1019	 1077	 1132	 1120	 1244	 1250	 1278	 1305	 1275	 1197	 1077	 1029	980.0	982.1	975.6	997.1	 1002	996.0	986.7	987.2	960.5	968.6	937.8	919.9	878.8	818.9	765.3	729.5	698.3	544.7	428.0	346.0	281.5	233.8	193.4	165.8	187.7	780.3	9999.9	9999.9	9999.9	 2156	116.6
440.0	460.4	502.1	579.8	567.1	762.7	867.2	876.9	 1039	954.7	 1064	 1116	 1100	 1189	 1311	 1301	 1344	 1294	 1205	 1094	 1033	982.7	943.6	966.9	957.9	994.9	975.3	976.5	965.9	975.7	963.0	922.4	904.0	874.7	843.4	785.2	712.7	661.8	610.5	479.6	376.7	314.4	259.6	207.3	178.2	147.1	175.7	774.8	9999.9	9999.9	9999.9	 1933
445.0	448.2	533.7	590.9	650.8	666.4	912.9	902.9	939.2	954.7	979.5	 1051	 1110	 1143	 1271	 1296	 1292	 1268	 1155	 1041	 1003	918.5	920.0	946.4	923.3	931.4	928.1	939.3	940.5	952.0	937.1	921.2	881.5	869.9	818.7	779.1	706.7	627.7	618.1	541.5	412.5	339.1	281.4	232.1	194.8	167.4	141.6	166.7	772.0	9999.9	9999.9	9999.9
450.0	389.9	561.9	515.9	647.3	718.9	855.5	854.3	942.7	925.0	944.5	 1062	 1058	 1147	 1215	 1236	 1252	 1282	 1108	 1075	 1006	892.9	920.3	891.3	887.2	900.6	897.7	890.4	902.4	916.7	900.2	879.9	855.1	849.1	817.3	787.7	704.3	625.4	585.6	551.3	462.2	372.0	306.4	250.3	220.0	181.1	152.9	135.8	163.8	764.9	9999.9	9999.9
455.0	381.9	573.8	568.1	559.8	642.7	890.5	879.7	844.4	915.8	949.6	 1030	 1014	 1108	 1165	 1200	 1199	 1217	 1104	 1045	935.0	901.4	891.8	849.9	828.0	863.6	860.5	855.7	853.3	842.1	868.4	846.7	846.3	793.7	788.9	759.5	694.2	627.5	557.3	519.8	482.9	396.6	317.1	269.0	231.7	194.4	161.1	138.4	133.1	162.8	761.6	9999.9
460.0	475.4	546.9	541.6	560.1	528.5	678.3	821.7	907.3	831.1	931.2	971.7	972.4	 1046	 1074	 1163	 1160	 1110	 1098	984.2	901.7	842.3	836.5	811.4	820.3	807.1	801.2	817.5	821.9	802.7	799.5	819.5	800.7	773.2	758.8	745.5	680.5	613.0	531.9	481.3	471.3	431.5	342.8	277.1	241.7	217.1	175.4	154.1	129.1	116.0	149.3	751.1
465.0	432.1	417.1	549.8	548.1	608.1	683.2	815.0	755.8	814.3	920.3	916.1	964.3	 1030	 1073	 1086	 1145	 1101	 1010	920.0	864.4	819.0	791.8	773.5	759.7	739.8	770.4	746.9	769.0	775.5	755.6	751.6	756.8	741.3	720.5	690.5	664.7	608.4	532.4	484.2	437.4	423.8	366.0	305.2	256.1	225.8	196.3	167.5	146.1	119.3	112.9	147.2
470.0	364.0	475.3	511.8	571.7	623.2	699.8	667.7	721.6	738.2	822.6	847.7	872.5	949.2	989.0	 1014	 1054	 1044	971.6	881.7	807.1	796.4	751.4	725.2	747.1	722.7	707.9	694.5	706.8	720.7	705.4	693.9	696.2	669.4	671.3	642.1	614.3	583.6	513.6	465.5	417.7	375.8	380.5	335.8	271.0	227.8	200.5	183.4	164.2	139.6	118.3	100.8
475.0	318.9	371.2	475.8	538.3	544.3	624.6	602.8	661.3	697.5	805.1	849.2	812.1	876.6	923.7	952.2	951.9	961.1	888.8	832.5	739.1	718.0	703.6	688.2	664.1	665.4	656.7	674.1	653.8	652.7	650.8	673.6	646.1	637.7	638.1	607.7	583.3	535.3	507.8	456.3	398.6	372.3	350.5	343.9	284.2	229.5	208.0	182.9	170.5	146.2	122.5	107.8
480.0	350.5	244.3	348.2	308.1	465.4	548.3	582.3	686.5	679.8	728.1	744.2	809.5	793.3	900.3	957.2	963.4	915.8	859.7	799.2	719.2	667.4	666.2	657.9	607.7	626.6	619.3	604.6	602.4	624.4	616.6	595.7	604.6	613.1	584.6	579.5	549.9	520.4	470.1	424.9	387.9	347.7	323.5	315.4	305.3	250.0	217.1	192.9	171.5	153.7	131.8	111.5
485.0	366.2	322.7	311.5	479.7	469.7	514.1	565.6	532.0	617.4	664.4	729.2	766.1	793.9	880.0	864.2	887.9	897.5	803.8	766.5	669.5	645.0	623.5	614.0	589.1	590.1	566.4	573.8	562.9	580.5	579.0	572.0	557.8	544.5	565.2	556.5	530.6	498.0	457.4	412.7	382.1	347.5	326.0	288.8	298.1	275.0	226.6	194.7	173.8	162.7	136.9	120.6
490.0	315.4	356.4	328.9	457.2	410.6	463.3	517.5	505.3	594.2	628.2	628.6	676.1	711.7	782.8	820.4	868.2	845.1	793.7	740.6	656.2	628.7	597.9	591.6	588.7	563.2	561.2	548.7	534.5	529.0	537.7	519.3	532.5	539.7	544.9	516.9	502.7	465.1	423.4	402.2	364.6	333.1	306.9	284.1	271.5	268.2	249.0	200.3	186.5	156.6	142.8	130.1
495.0	289.6	318.3	325.2	354.0	479.8	421.7	557.8	627.1	558.7	599.7	621.1	693.8	729.7	720.4	808.8	837.3	831.5	738.4	665.8	625.1	600.8	558.8	571.4	537.2	525.9	521.7	502.2	509.7	492.4	500.4	489.9	509.6	486.1	503.7	476.2	453.7	439.9	407.8	366.2	358.1	326.9	295.2	288.2	259.1	244.3	250.1	216.0	181.8	166.0	149.0	135.4
500.0	147.9	347.2	304.2	285.0	432.5	390.4	440.5	531.1	565.2	537.6	600.9	622.3	703.7	675.4	723.6	764.6	750.1	701.7	682.8	609.9	576.5	525.5	524.7	503.3	486.3	491.4	490.7	463.3	459.1	461.9	461.2	463.4	459.0	449.8	455.2	432.5	410.2	375.9	351.1	337.2	307.0	281.1	258.9	250.6	226.8	235.1	221.8	187.4	167.1	158.3	136.8
505.0	209.3	307.2	326.0	282.9	402.7	388.8	397.5	497.2	508.7	504.8	527.9	604.9	631.5	659.0	693.1	701.5	710.2	631.4	628.2	583.1	542.1	496.0	474.4	472.1	436.9	430.6	452.9	430.4	433.4	418.7	423.4	425.1	433.1	436.3	420.5	409.9	381.6	357.5	327.9	316.6	293.4	272.2	258.4	231.6	222.4	206.2	209.0	207.9	170.1	157.0	144.8
510.0	209.6	266.8	274.9	266.7	249.7	433.7	440.4	400.2	442.2	469.1	527.9	523.3	559.8	615.7	644.0	659.3	620.5	579.7	566.9	539.9	496.4	466.6	436.6	441.7	425.3	406.4	399.6	392.5	399.3	381.3	376.6	390.2	398.4	392.2	387.4	371.3	349.9	326.8	300.0	294.3	275.8	257.3	235.4	222.1	207.0	197.4	194.5	201.6	181.6	155.8	138.3
515.0	234.6	246.7	284.2	250.9	279.9	388.0	401.9	374.8	428.8	419.9	458.2	463.6	520.9	517.3	591.0	591.3	568.6	553.2	491.9	483.6	440.2	437.3	413.1	390.1	386.3	377.1	375.5	377.3	369.2	361.3	338.9	349.9	368.7	349.2	342.8	329.0	323.1	290.5	286.8	266.4	253.8	242.4	226.5	212.8	199.7	184.3	175.5	174.9	171.3	161.9	138.5
520.0	178.2	197.0	255.2	233.4	305.8	330.6	292.9	355.5	348.2	414.6	411.6	445.9	475.5	510.8	530.3	517.9	555.2	513.5	442.2	462.4	419.6	404.4	368.0	362.9	367.8	346.8	345.4	335.0	314.4	320.9	319.3	326.9	323.1	313.8	330.0	307.5	292.6	282.1	262.8	236.6	231.2	217.2	206.2	197.2	189.1	170.8	166.4	161.4	162.1	161.8	141.8
525.0	184.1	193.1	186.2	229.9	278.9	315.8	297.4	328.6	397.4	365.2	358.3	417.7	436.9	475.9	487.4	517.5	458.1	463.8	413.0	413.3	377.3	360.6	357.7	339.0	324.6	306.5	320.7	298.0	301.4	303.0	285.5	290.0	294.1	291.5	295.9	282.8	267.7	248.4	241.9	228.2	213.1	199.6	187.5	176.9	168.5	164.2	165.2	148.7	150.1	146.6	132.6
530.0	170.0	218.7	237.2	204.3	228.0	280.6	248.8	333.4	296.3	368.8	369.5	370.5	394.4	441.9	465.8	453.9	445.5	413.2	384.3	350.6	328.5	325.6	317.2	311.9	280.7	291.6	289.0	273.5	261.4	266.2	258.6	267.4	252.6	264.7	272.9	256.5	253.7	224.3	217.6	197.1	197.1	186.2	175.2	160.8	152.9	157.7	139.4	128.3	130.7	133.0	135.7
535.0	120.5	237.4	166.5	200.1	195.0	226.3	221.2	278.2	281.8	275.9	316.1	350.4	335.3	386.3	416.6	375.8	427.8	400.5	338.1	325.9	306.7	282.0	276.5	275.1	265.0	250.7	245.7	246.8	236.6	239.2	225.8	237.3	233.2	244.0	229.2	227.3	220.5	204.5	185.4	194.9	173.8	167.9	158.1	156.8	143.0	138.1	135.7	124.5	114.6	117.0	118.4
540.0	191.4	190.0	195.0	137.8	214.0	212.5	219.5	199.3	262.0	260.2	258.5	316.7	308.2	364.1	464.7	402.6	358.6	361.5	318.7	299.9	273.9	247.8	248.5	239.8	216.2	222.6	227.5	218.0	220.2	216.8	213.8	212.8	218.3	212.0	215.5	209.5	193.8	176.6	173.5	175.5	155.2	150.4	140.2	133.4	134.8	131.1	114.2	113.1	108.3	104.5	102.3
545.0	163.0	194.9	122.3	134.0	157.7	212.1	179.7	240.2	227.6	250.4	257.0	290.9	304.4	325.3	478.7	674.2	357.7	310.0	296.8	284.5	249.2	240.8	229.8	216.9	210.8	209.1	196.4	199.0	203.4	198.7	184.3	181.1	189.5	192.9	188.0	181.1	168.9	163.5	159.4	146.3	137.8	137.6	126.8	121.1	119.9	116.1	105.0	100.9	102.3	96.17	89.36
550.0	88.42	112.2	188.3	145.2	126.9	190.2	173.4	193.7	230.5	231.5	224.2	237.7	248.7	299.9	363.7	 1126	507.8	278.6	284.0	243.4	226.5	212.0	207.3	198.5	203.0	196.7	186.5	166.7	177.5	168.0	176.9	172.3	167.8	176.1	176.2	168.3	150.6	149.5	136.3	135.6	133.2	114.9	115.8	110.6	106.8	103.7	101.7	96.28	91.67	88.65	83.13
