Sample:	'SLABO1-5-5-320
File name:	2P3.FD3
Run Date:	15:02:49, 08/17/2022
Operator:	Administrator
Comment:	'

Instrument
Model:	F-7000 FL Spectrophotometer
Serial Number:	2354-007
ROM Version:	5J14000 06

Instrument Parameters
Measurement type:	3-D Scan
Data mode:	Fluorescence
EX  Start WL:	200.0 nm
EX  End WL:	450.0 nm
EX Sampling Interval:	5.0 nm
EM  Start WL:	280.0 nm
EM  End WL:	550.0 nm
EM Sampling Interval:	5.0 nm
Scan speed:	12000 nm/min
EX Slit:	5.0 nm
EM Slit:	5.0 nm
PMT Voltage:	700 V
Response:	Auto 
Corrected spectra:	Off
Shutter control:	On
Contour interval:	25.000

Peak integration
Integration method:	Rectangular
Sensitivity:	1
Threshold:	1.000

Peaks
No.	ApexEX/EM(nm)	Height(Data)
1	205.0/345.0	852.6
2	205.0/370.0	775.6
3	205.0/475.0	478.2
4	205.0/530.0	192.2
5	205.0/545.0	204.3
6	210.0/335.0	878.2
7	215.0/535.0	162.2
8	220.0/305.0	938.6
9	220.0/370.0	770.6
10	220.0/490.0	491.6
11	225.0/320.0	981.5
12	225.0/335.0	 1064
13	225.0/365.0	809.6
14	225.0/375.0	824.7
15	230.0/330.0	986.9
16	230.0/340.0	 1007
17	230.0/355.0	924.7
18	230.0/370.0	794.1
19	230.0/380.0	838.1
20	230.0/415.0	 1649
21	230.0/430.0	 1597
22	230.0/500.0	485.3
23	230.0/520.0	317.3
24	235.0/530.0	231.7
25	240.0/375.0	782.4
26	240.0/485.0	637.7
27	240.0/515.0	343.0
28	250.0/330.0	619.7
29	250.0/435.0	 1361
30	250.0/485.0	645.4
31	255.0/345.0	577.9
32	255.0/360.0	595.4
33	255.0/420.0	 1411
34	260.0/340.0	575.6
35	260.0/375.0	623.3
36	260.0/435.0	 1372
37	275.0/305.0	749.3
38	280.0/310.0	883.2
39	280.0/340.0	753.8
40	280.0/350.0	734.9
41	280.0/370.0	675.9
42	285.0/315.0	963.9
43	285.0/400.0	773.3
44	290.0/320.0	830.6
45	295.0/330.0	720.2
46	300.0/335.0	641.4
47	305.0/340.0	546.5
48	310.0/345.0	529.1
49	315.0/350.0	514.2
50	320.0/360.0	512.6
51	325.0/365.0	564.0
52	325.0/425.0	 1067
53	330.0/370.0	580.7
54	335.0/375.0	550.7
55	335.0/430.0	 1040
56	340.0/385.0	602.4
57	345.0/390.0	636.4
58	390.0/295.0	8.792
59	390.0/310.0	12.69
60	395.0/325.0	15.21
61	405.0/470.0	225.1
62	410.0/325.0	11.37
63	410.0/475.0	202.2
64	420.0/490.0	159.1
65	425.0/320.0	8.646
66	425.0/495.0	140.6
67	430.0/315.0	8.503
68	440.0/370.0	10.09
69	440.0/515.0	98.30
70	445.0/295.0	5.387

Data Points
	200.0	205.0	210.0	215.0	220.0	225.0	230.0	235.0	240.0	245.0	250.0	255.0	260.0	265.0	270.0	275.0	280.0	285.0	290.0	295.0	300.0	305.0	310.0	315.0	320.0	325.0	330.0	335.0	340.0	345.0	350.0	355.0	360.0	365.0	370.0	375.0	380.0	385.0	390.0	395.0	400.0	405.0	410.0	415.0	420.0	425.0	430.0	435.0	440.0	445.0	450.0
280.0	143.6	38.10	48.82	75.11	59.57	87.03	31.67	17.29	17.90	35.62	46.64	82.41	48.97	26.27	14.87	 2676	9999.9	 4690	104.6	22.21	24.22	22.57	17.03	16.16	13.16	10.95	12.07	11.50	11.69	9.833	8.064	7.608	9.733	9.509	6.969	7.439	5.624	6.288	6.433	5.972	3.530	2.995	3.662	3.914	2.407	4.157	2.479	1.905	2.973	1.626	2.670
285.0	389.2	298.6	233.1	253.9	243.7	240.7	155.4	69.26	41.27	79.52	113.8	132.7	155.4	112.0	59.82	212.8	 6227	9999.9	9999.9	819.8	39.39	35.49	26.50	22.50	19.55	16.53	13.75	11.11	10.48	11.97	9.643	9.209	8.857	8.929	9.739	8.827	7.730	5.421	5.865	4.541	5.383	5.524	3.741	3.925	2.749	3.517	2.857	2.498	3.997	2.517	2.543
290.0	857.7	370.5	451.3	465.6	475.4	542.5	322.6	149.9	91.24	108.2	153.4	159.1	201.0	334.1	144.2	113.2	475.5	9999.9	9999.9	9999.9	 1122	53.58	38.08	40.61	28.35	19.20	18.28	15.36	15.16	12.17	12.72	11.42	10.55	10.73	12.32	9.629	7.275	6.319	7.293	6.249	5.103	5.414	4.773	3.699	4.120	3.494	4.288	4.334	4.694	3.190	3.582
295.0	970.2	646.2	554.3	560.4	652.0	657.8	463.7	227.0	138.4	183.3	204.5	188.3	192.5	336.2	469.0	214.1	187.1	761.6	9999.9	9999.9	9999.9	 1387	62.14	48.12	42.86	28.11	24.30	21.91	17.33	14.09	12.27	13.29	11.28	11.78	12.11	8.266	6.361	7.751	8.792	7.470	6.863	5.828	5.201	5.042	5.479	3.769	3.510	5.122	5.058	5.387	4.028
300.0	 1058	712.2	694.5	715.6	841.5	804.6	518.2	310.6	181.3	215.8	258.6	245.6	225.3	279.6	518.9	532.6	293.8	245.0	790.5	9999.9	9999.9	9999.9	 1465	75.81	60.78	49.80	38.48	24.92	22.69	18.36	17.08	14.42	13.74	11.03	12.32	11.87	9.715	8.249	7.278	9.357	8.360	5.913	5.693	5.298	5.812	6.335	5.195	5.709	5.091	4.988	4.437
305.0	 1074	817.8	711.3	705.0	938.6	885.5	569.9	408.5	257.4	221.6	288.5	278.5	289.0	323.5	400.5	749.3	612.0	311.4	248.5	793.5	9999.9	9999.9	9999.9	 1730	90.42	65.99	54.33	41.14	30.84	23.24	18.76	15.36	18.06	13.26	11.87	11.57	10.62	10.19	10.44	10.80	7.595	8.422	6.872	7.201	6.926	5.964	6.437	6.164	5.076	4.169	5.512
310.0	 1059	 1014	867.0	772.4	937.4	811.5	641.4	511.1	324.5	363.9	346.2	366.8	359.8	362.8	442.2	533.0	883.2	572.4	278.5	229.4	775.8	9999.9	9999.9	9999.9	 1809	104.4	76.47	63.92	42.70	32.56	25.75	22.10	20.33	16.35	15.02	15.37	13.98	10.09	12.69	12.32	8.209	8.721	7.021	7.020	7.262	6.565	6.427	6.027	5.138	6.407	5.650
315.0	 1076	917.0	874.9	729.9	895.4	765.7	740.1	569.0	468.1	420.1	449.2	395.8	374.5	454.2	456.0	513.1	681.7	963.9	464.1	235.3	192.8	791.2	9999.9	9999.9	9999.9	 1613	104.0	85.42	69.28	47.68	34.53	29.42	20.25	20.27	19.29	15.04	14.21	11.25	11.14	9.043	9.141	8.511	7.632	6.169	7.053	7.536	8.503	6.456	6.557	5.555	6.946
320.0	923.8	958.5	731.0	791.8	794.8	981.5	805.7	615.4	514.8	446.1	487.3	507.8	493.6	451.5	556.8	574.7	600.7	734.9	830.6	320.2	154.7	172.9	813.1	9999.9	9999.9	9999.9	 1586	126.8	94.56	67.00	49.47	38.55	25.51	22.99	19.65	18.28	13.08	12.31	13.65	12.02	10.71	9.609	8.165	7.987	7.584	8.646	7.296	7.008	6.993	6.940	6.760
325.0	794.7	828.8	838.9	759.5	852.7	948.2	832.6	742.6	564.1	492.5	499.8	524.1	496.7	516.8	573.6	628.1	684.7	674.2	765.8	672.7	246.8	134.9	163.7	794.7	9999.9	9999.9	9999.9	 1813	133.9	99.81	72.63	56.01	34.58	29.51	25.43	19.09	16.79	13.54	14.06	15.21	9.905	10.19	11.37	7.977	8.737	7.401	7.321	7.803	5.983	7.564	6.652
330.0	737.9	819.6	876.9	760.3	875.8	915.0	986.9	839.6	646.1	528.1	619.7	553.6	529.8	540.5	583.8	652.1	705.2	647.1	546.2	720.2	498.6	186.2	135.6	169.5	805.9	9999.9	9999.9	9999.9	 1813	140.4	105.9	80.52	63.35	42.68	29.89	21.06	21.76	16.06	14.51	14.08	9.381	11.09	10.45	9.424	9.491	7.922	7.493	8.398	6.576	7.528	7.898
335.0	659.2	806.2	878.2	716.5	806.5	 1064	946.2	845.7	650.9	595.4	573.4	573.1	535.3	530.6	599.2	646.0	723.8	704.0	573.1	460.9	641.4	366.5	149.0	133.5	176.0	794.8	9999.9	9999.9	9999.9	 1891	151.8	108.5	84.15	63.84	41.46	31.70	25.37	17.13	14.59	13.01	11.59	13.43	9.085	8.202	7.861	8.917	8.402	6.573	6.503	7.840	7.600
340.0	721.5	812.3	709.4	730.3	833.1	898.4	 1007	800.1	679.2	602.4	570.7	550.8	575.6	548.5	612.8	689.9	753.8	689.6	597.7	442.8	384.9	546.5	291.1	156.5	142.7	169.3	803.7	9999.9	9999.9	9999.9	 2155	155.2	114.2	81.79	63.84	39.91	31.15	24.96	18.43	14.94	14.55	12.44	11.54	8.492	7.780	9.503	7.642	6.917	7.256	7.207	7.098
345.0	730.2	852.6	820.0	775.7	734.8	885.6	849.5	766.0	697.9	556.2	537.9	577.9	542.5	545.1	596.8	647.8	682.6	682.4	585.1	425.0	316.3	367.6	529.1	258.3	155.7	139.8	187.3	796.7	9999.9	9999.9	9999.9	 2351	166.6	125.7	90.76	62.69	40.57	30.08	24.66	18.11	14.32	13.92	10.36	10.07	8.518	10.09	9.269	8.248	7.443	7.225	8.081
350.0	734.5	811.4	659.2	706.5	773.1	863.0	914.6	747.3	658.1	607.0	538.6	532.3	536.2	520.3	579.4	656.5	734.9	647.4	552.3	469.2	337.8	286.7	401.6	514.2	230.4	163.8	153.6	185.8	815.8	9999.9	9999.9	9999.9	 2442	161.9	118.4	85.86	58.07	40.56	25.86	21.81	16.36	14.57	11.47	10.52	11.20	9.931	8.070	8.066	8.242	6.941	8.274
355.0	565.3	737.0	601.8	692.3	695.1	789.5	924.7	764.6	640.2	568.4	579.8	560.1	532.8	577.3	595.1	632.6	691.1	661.5	568.3	471.3	358.9	306.3	292.4	459.7	465.8	225.3	180.8	159.8	195.2	797.9	9999.9	9999.9	9999.9	 2591	178.8	115.4	83.90	56.66	39.16	27.28	20.29	17.61	12.19	12.64	10.44	10.21	8.201	8.245	6.961	8.288	7.556
360.0	537.3	602.7	614.8	684.8	555.8	803.6	832.6	692.2	649.8	597.8	576.9	595.4	564.0	581.1	605.3	614.0	682.1	657.7	588.6	501.0	388.9	351.9	309.2	332.9	512.6	419.3	228.7	191.4	169.4	192.6	826.7	9999.9	9999.9	9999.9	 2433	170.5	111.0	81.71	56.58	35.81	25.66	20.47	17.25	13.52	10.35	10.19	9.034	9.374	7.895	8.937	7.006
365.0	670.4	635.4	566.7	640.2	663.7	809.6	718.9	689.3	653.7	661.9	585.2	560.1	587.4	575.6	613.6	657.0	662.0	652.4	593.1	509.8	422.2	385.9	380.4	353.0	383.6	564.0	393.9	234.9	198.8	168.0	201.6	783.8	9999.9	9999.9	9999.9	 2725	160.3	111.8	77.70	52.68	34.19	23.98	18.96	17.07	13.46	10.15	9.314	8.297	8.722	9.014	8.566
370.0	593.0	775.6	709.6	669.9	770.6	734.5	794.1	695.2	687.4	631.3	601.4	613.5	609.2	580.9	621.6	646.0	675.9	671.8	586.5	542.6	449.8	423.4	414.4	373.7	380.1	459.0	580.7	347.2	242.7	196.4	180.5	187.9	795.7	9999.9	9999.9	9999.9	 2715	157.9	107.2	71.03	47.61	34.93	24.06	19.38	13.37	13.57	8.896	8.803	10.09	9.338	7.461
375.0	415.7	672.9	527.0	728.3	664.5	824.7	717.9	688.3	782.4	667.7	615.3	605.2	623.3	618.5	626.9	659.4	675.8	639.5	611.3	552.1	508.7	481.6	463.0	437.8	413.1	419.9	530.9	550.7	337.0	240.3	211.9	174.3	191.3	798.9	9999.9	9999.9	9999.9	 2864	148.5	97.88	67.29	46.82	35.73	23.31	15.45	13.00	11.09	11.59	8.091	8.717	7.276
380.0	447.0	646.6	514.5	614.5	653.6	748.1	838.1	763.9	665.7	674.0	664.1	621.5	608.6	626.9	642.0	612.2	622.6	653.2	611.5	570.0	514.8	515.1	504.2	504.0	493.3	456.4	461.5	547.9	502.8	336.1	241.0	217.3	171.3	182.5	803.3	9999.9	9999.9	9999.9	 2508	139.9	89.29	63.94	44.50	31.19	22.34	16.37	13.58	10.54	9.820	8.801	9.533
385.0	495.4	637.2	626.0	645.0	691.7	821.5	728.6	738.3	732.7	783.0	706.3	652.5	676.5	687.8	640.5	663.2	694.6	660.8	642.9	594.7	560.3	532.7	544.7	551.8	533.2	534.4	505.6	495.1	602.4	487.3	306.9	241.2	205.9	177.2	195.2	799.7	9999.9	9999.9	9999.9	 2622	128.2	83.05	55.05	44.44	30.75	21.05	16.92	12.07	10.81	9.700	8.003
390.0	548.3	609.3	754.9	736.8	831.1	787.4	837.8	822.1	811.3	833.0	783.3	763.8	699.7	686.5	677.7	716.7	711.4	719.9	658.7	601.2	596.3	588.9	609.2	618.3	605.3	595.6	563.2	521.7	553.8	636.4	462.5	324.8	259.2	210.2	185.5	199.5	780.4	9999.9	9999.9	9999.9	 2492	123.4	83.26	54.47	39.28	29.63	19.90	15.97	11.76	11.88	8.810
395.0	593.5	558.4	619.1	889.3	930.4	939.3	 1004	956.6	900.6	889.7	849.3	859.4	806.2	833.9	790.1	736.3	742.7	722.0	678.0	649.1	642.2	640.0	686.2	681.2	676.4	657.9	670.8	629.8	607.0	606.0	624.4	456.7	330.8	285.4	235.7	182.4	195.1	770.6	9999.9	9999.9	9999.9	 2447	113.1	71.56	52.44	35.92	27.39	19.03	14.93	14.07	11.46
400.0	546.1	710.9	720.1	847.9	983.3	 1197	 1277	 1124	 1042	 1041	993.3	 1016	995.0	886.0	844.0	754.0	737.6	773.3	720.6	674.9	687.0	702.2	752.5	760.7	744.1	771.5	763.1	730.3	684.8	624.0	662.5	638.6	448.4	347.9	277.5	224.4	192.5	185.9	774.2	9999.9	9999.9	9999.9	 2158	107.5	70.16	51.66	37.65	24.16	20.18	16.46	12.56
405.0	592.5	690.1	895.6	910.5	 1229	 1285	 1336	 1238	 1125	 1132	 1069	 1116	 1133	969.1	875.1	822.3	794.7	764.5	723.0	719.0	725.3	766.0	808.5	840.0	842.9	864.9	856.0	841.4	780.5	730.8	681.5	711.1	609.1	441.3	336.4	262.2	206.0	162.2	170.5	756.7	9999.9	9999.9	9999.9	 1932	97.52	64.58	46.77	35.66	25.03	19.84	15.14
410.0	663.3	837.7	 1024	 1175	 1174	 1461	 1578	 1389	 1214	 1246	 1221	 1238	 1123	 1112	913.0	819.9	814.7	755.5	775.3	770.8	760.2	796.2	835.5	886.7	942.5	956.0	947.7	924.8	890.2	824.2	741.7	706.2	716.8	585.4	384.8	322.6	236.4	188.8	141.4	152.7	744.8	9999.9	9999.9	9999.9	 1791	90.55	65.31	46.43	30.99	24.93	16.10
415.0	628.4	730.5	936.9	 1084	 1303	 1642	 1649	 1443	 1394	 1273	 1300	 1392	 1281	 1191	995.3	912.5	827.3	793.8	781.8	772.2	785.9	866.2	896.9	929.0	984.7	997.4	 1013	994.0	947.6	874.4	795.2	737.3	694.7	696.4	497.1	362.7	278.7	211.8	162.4	129.3	150.7	729.6	9999.9	9999.9	9999.9	 1824	83.81	59.66	40.86	32.29	23.05
420.0	556.8	615.8	901.8	 1297	 1474	 1457	 1632	 1480	 1358	 1318	 1361	 1411	 1331	 1182	 1024	924.7	882.8	834.1	768.7	787.6	815.1	862.2	914.1	956.0	 1024	 1057	 1026	 1017	993.3	923.5	848.2	761.2	690.9	668.6	634.3	440.8	315.6	233.1	178.4	141.6	105.9	134.9	717.7	9999.9	9999.9	9999.9	 1578	83.15	54.33	42.23	32.24
425.0	638.7	768.6	976.0	 1106	 1459	 1460	 1581	 1443	 1359	 1362	 1287	 1402	 1394	 1183	 1090	964.0	885.9	866.7	809.6	788.2	818.0	857.1	916.8	967.4	999.3	 1067	 1060	 1029	999.7	950.6	876.6	806.4	718.8	636.7	648.8	530.4	356.1	264.1	196.4	152.1	114.4	97.37	128.3	710.9	9999.9	9999.9	9999.9	 1392	75.65	53.22	36.19
430.0	608.4	872.2	767.6	 1264	 1522	 1584	 1597	 1431	 1334	 1327	 1298	 1395	 1345	 1238	 1052	 1004	895.5	841.9	805.7	763.9	770.7	843.0	888.9	976.5	990.0	 1040	 1027	 1040	985.7	935.4	893.4	796.1	725.5	644.2	583.7	556.1	432.3	290.1	220.5	172.3	130.7	101.5	90.04	117.0	702.2	9999.9	9999.9	9999.9	 1212	75.45	49.30
435.0	482.3	625.6	879.3	 1160	 1348	 1411	 1579	 1454	 1303	 1215	 1361	 1274	 1372	 1220	 1043	971.1	914.3	819.0	745.0	730.3	746.2	785.7	841.7	938.8	979.2	 1024	 1003	 1014	977.0	917.1	881.7	809.4	720.3	654.4	577.1	517.3	496.2	345.1	245.3	192.9	148.9	115.5	95.14	84.13	112.0	703.9	9999.9	9999.9	9999.9	 1211	71.64
440.0	519.1	708.6	852.5	 1002	 1369	 1490	 1492	 1266	 1263	 1283	 1308	 1252	 1324	 1222	 1047	997.4	867.5	825.6	751.1	727.3	734.0	777.8	820.1	882.9	917.0	955.3	998.2	982.6	962.1	885.7	849.8	797.0	715.1	651.2	585.3	498.8	459.4	422.1	274.6	206.1	161.7	137.1	104.6	91.08	78.04	113.4	700.3	9999.9	9999.9	9999.9	 1043
445.0	474.0	756.9	787.4	960.0	 1052	 1262	 1340	 1312	 1170	 1223	 1192	 1196	 1212	 1140	 1038	934.2	872.4	779.2	731.0	696.4	700.0	742.3	779.4	833.2	853.0	911.6	931.7	941.3	912.9	869.2	822.2	768.1	702.3	650.1	564.8	497.4	420.9	385.4	339.1	237.8	179.8	145.4	112.5	92.16	81.38	72.39	103.9	703.5	9999.9	9999.9	9999.9
450.0	494.5	548.7	791.3	900.2	972.7	 1162	 1304	 1187	 1161	 1055	 1037	 1123	 1140	 1068	 1004	881.6	844.6	785.9	709.2	661.8	659.3	691.4	724.2	773.8	827.0	821.4	858.3	835.9	853.3	821.8	762.6	722.5	675.3	620.3	545.1	484.2	399.2	361.6	348.1	282.0	195.7	155.3	130.3	103.6	96.55	83.89	73.70	104.3	695.4	9999.9	9999.9
455.0	337.8	499.5	666.2	928.1	862.3	 1105	 1162	 1036	990.5	 1018	 1044	 1079	 1013	 1003	935.5	821.3	806.2	738.8	690.4	643.0	585.8	624.8	692.6	699.6	763.9	770.4	790.9	783.8	797.0	752.4	724.2	684.4	633.3	587.1	533.4	462.2	402.0	344.1	302.0	307.5	233.1	162.3	141.1	121.2	97.84	85.04	74.80	67.90	103.9	692.6	9999.9
460.0	413.5	518.3	628.7	832.4	971.9	998.5	958.1	979.4	877.8	946.4	909.9	939.2	952.3	939.3	820.9	805.6	704.6	686.9	616.7	584.8	568.7	593.4	624.1	672.3	672.5	735.9	719.3	717.2	723.0	693.7	669.7	625.0	593.6	561.3	527.9	452.8	391.4	337.0	279.1	277.4	263.3	190.3	142.4	122.6	109.8	90.63	81.96	65.70	61.82	102.2	686.7
465.0	404.4	488.9	654.0	621.7	782.6	879.7	896.3	867.2	823.8	816.8	917.7	937.4	860.0	831.7	740.9	740.0	671.8	633.6	590.2	554.4	555.8	549.0	583.9	592.2	620.9	635.6	661.6	655.3	660.5	643.7	623.8	580.0	546.6	523.4	488.2	433.4	371.7	319.3	268.8	242.1	241.9	219.6	161.9	129.3	111.7	101.8	82.32	79.19	66.75	59.09	98.10
470.0	361.7	427.4	495.7	547.3	634.7	755.8	860.1	828.1	750.7	698.8	790.9	834.4	798.7	796.9	721.0	705.0	650.3	582.8	545.5	547.2	502.8	505.0	525.8	542.4	546.7	584.1	583.9	585.8	597.3	583.6	551.6	538.1	493.7	486.1	449.6	414.2	361.4	304.6	261.0	224.3	212.7	225.1	190.7	142.9	121.6	109.0	87.14	78.54	66.49	57.37	55.92
475.0	281.7	478.2	419.7	509.9	662.8	753.4	721.5	723.1	638.9	615.7	706.0	677.9	692.2	707.9	665.7	658.6	564.6	563.1	497.2	480.7	472.3	457.2	493.8	516.2	494.7	520.3	534.4	529.3	522.7	528.5	507.0	480.3	467.1	446.8	429.8	375.8	329.8	290.9	243.8	224.7	201.2	193.1	202.2	163.0	116.4	109.0	96.11	81.78	70.02	61.05	54.37
480.0	296.5	322.2	383.5	507.5	501.9	578.4	659.6	575.4	604.2	605.5	573.1	629.5	620.8	662.5	649.8	609.9	509.3	509.5	475.5	431.3	408.1	419.2	438.4	459.4	448.3	464.1	471.8	465.6	476.9	466.6	461.4	438.9	434.2	419.5	393.0	349.4	311.1	270.3	249.2	207.6	195.4	177.0	179.5	177.5	127.9	101.1	94.03	83.35	68.54	64.61	53.44
485.0	163.4	300.3	424.1	455.8	429.2	468.9	619.1	522.3	637.7	580.3	645.4	612.6	608.9	592.8	575.9	564.6	538.6	466.1	462.9	424.2	408.6	378.9	403.6	420.7	418.2	424.5	446.6	451.0	444.2	427.4	421.9	397.4	398.5	377.1	368.0	333.8	287.9	268.7	230.9	200.1	187.7	172.2	152.5	162.2	149.0	119.5	100.9	85.71	76.07	66.91	56.51
490.0	214.4	247.3	355.1	415.5	491.6	483.5	451.6	511.1	523.8	500.0	519.8	575.8	558.1	560.4	579.6	498.6	538.8	457.8	416.2	356.1	364.8	368.1	373.2	390.5	387.4	386.6	387.9	413.9	405.4	381.4	397.5	377.7	364.4	359.2	331.8	315.6	281.6	246.6	224.5	201.8	178.7	159.7	151.1	138.6	159.1	129.4	98.15	91.12	81.59	71.96	61.51
495.0	204.4	237.0	288.7	357.2	484.2	398.5	462.9	396.1	486.8	484.9	493.9	490.8	539.4	541.6	514.8	503.6	480.8	432.0	385.4	360.7	354.5	356.9	353.1	355.3	348.6	350.5	365.9	363.5	355.5	367.7	361.3	342.8	329.0	325.4	317.9	283.4	265.4	239.6	224.4	195.1	171.5	164.1	139.1	135.4	135.4	140.6	116.8	90.36	75.39	69.78	66.38
500.0	199.5	139.8	220.9	354.9	416.6	442.4	485.3	427.3	415.3	418.1	460.1	475.7	495.0	497.5	459.5	462.5	425.0	395.6	366.8	339.6	332.5	319.9	310.9	319.9	299.3	323.9	330.8	342.8	323.7	329.1	333.0	310.0	300.5	306.5	296.2	283.6	247.1	222.0	202.7	185.7	168.6	148.2	139.2	133.5	120.4	132.3	123.4	100.3	80.64	66.94	62.44
505.0	199.9	198.1	268.3	247.6	327.1	328.9	394.9	378.0	366.6	364.1	392.3	430.9	439.6	416.1	401.9	440.2	398.7	377.7	322.7	303.1	275.5	278.6	294.7	274.6	272.4	284.4	306.5	299.4	288.9	290.0	285.1	284.7	283.2	280.1	258.9	253.5	222.2	211.4	192.6	170.6	160.5	148.3	136.7	119.8	109.2	110.2	114.6	110.2	84.65	76.78	67.03
510.0	201.2	201.9	261.1	189.0	362.0	321.0	349.9	308.9	321.3	344.1	356.9	362.4	382.0	396.5	379.6	389.3	364.2	340.9	326.5	282.6	272.4	273.5	253.3	246.3	257.8	244.1	268.4	264.1	262.1	267.8	255.3	266.9	245.1	246.9	243.9	225.8	203.7	177.5	175.4	155.7	150.7	137.9	128.4	114.8	104.3	100.3	102.1	106.7	95.61	76.43	63.83
515.0	192.1	150.7	151.9	219.8	261.4	266.9	282.2	301.7	343.0	293.3	344.4	352.1	358.1	345.6	356.4	376.5	374.6	329.6	283.7	266.0	244.5	230.8	226.7	245.2	225.1	224.0	238.5	241.9	237.2	246.6	227.5	228.7	229.3	230.0	226.3	214.4	185.3	178.7	160.8	147.7	139.4	126.0	116.7	110.8	102.6	96.93	84.32	93.72	98.30	81.51	63.35
520.0	172.9	191.7	175.9	224.3	209.0	244.9	317.3	272.6	300.4	283.8	324.6	293.3	358.4	361.6	328.3	347.0	329.8	296.9	247.9	231.3	220.5	214.2	220.4	207.6	226.3	208.7	223.8	207.8	206.0	210.5	208.6	209.0	203.3	198.0	199.9	186.8	165.9	162.0	142.8	134.7	124.9	116.1	105.4	99.33	99.34	89.04	82.71	80.67	90.71	81.19	69.14
525.0	120.8	122.3	140.6	170.6	185.3	254.8	275.2	211.3	256.1	290.8	249.6	297.7	300.6	308.7	309.1	307.4	286.6	265.1	242.6	226.4	197.7	198.4	194.3	176.5	189.6	187.9	183.6	185.0	190.4	179.0	188.4	178.8	186.6	175.2	165.6	162.9	144.6	139.7	129.1	122.5	121.1	111.1	100.4	96.01	85.49	79.97	79.48	73.78	75.46	76.48	70.54
530.0	101.7	192.2	168.7	128.9	169.6	161.2	227.6	231.7	202.4	247.1	218.9	241.2	256.5	253.2	270.0	282.4	245.7	247.9	219.2	204.5	200.7	178.6	181.8	171.2	165.8	179.1	180.9	166.4	167.6	166.3	176.2	166.0	171.5	158.1	160.8	143.9	141.6	127.4	115.2	113.5	105.9	98.96	94.12	87.76	81.02	75.57	77.19	67.33	68.96	67.97	71.93
535.0	72.01	158.4	124.5	162.2	103.4	213.1	192.5	215.6	203.1	239.9	214.9	236.1	200.6	244.7	262.6	274.1	241.6	219.7	196.6	178.7	167.7	159.0	161.1	152.5	149.5	146.4	151.3	148.0	143.3	153.5	153.6	149.1	146.7	141.4	148.2	127.7	122.0	116.5	107.0	98.49	93.37	89.38	84.44	81.83	73.43	72.37	65.71	65.17	59.49	58.48	63.51
540.0	80.38	136.1	99.42	108.5	158.3	167.5	174.9	141.0	166.9	195.0	185.2	184.5	181.4	210.3	310.0	243.6	202.4	221.5	187.9	172.4	151.9	154.4	139.3	140.5	137.7	138.0	123.8	137.6	134.3	131.6	130.4	134.1	137.5	126.7	134.5	121.1	111.8	104.3	91.03	82.58	87.78	79.33	77.52	74.16	70.60	67.09	64.17	55.93	55.53	52.01	46.79
545.0	60.84	204.3	116.8	117.4	133.3	167.8	160.1	164.8	186.7	168.5	149.5	176.3	182.6	201.0	321.2	387.8	217.7	171.5	156.4	158.7	138.2	130.6	131.1	135.6	121.8	122.1	118.0	117.7	118.2	114.3	121.2	121.0	117.4	113.6	111.3	105.4	101.8	99.45	83.32	81.78	78.41	73.92	69.88	67.30	66.44	62.98	55.72	57.72	55.63	49.01	45.45
550.0	82.18	106.6	111.2	125.7	114.3	129.9	155.7	136.7	165.9	166.1	131.9	163.4	154.3	194.2	229.3	685.2	351.4	150.5	143.9	135.7	120.5	114.0	126.5	110.8	103.9	117.5	109.8	113.0	105.0	107.7	113.1	106.7	107.4	110.5	101.3	104.1	93.13	88.79	83.81	75.52	71.37	70.38	67.96	62.01	60.17	55.13	57.30	49.36	50.86	47.95	43.81
