Sample:	'SLABO1-5-5-320
File name:	2P5.FD3
Run Date:	16:50:33, 08/17/2022
Operator:	Administrator
Comment:	'

Instrument
Model:	F-7000 FL Spectrophotometer
Serial Number:	2354-007
ROM Version:	5J14000 06

Instrument Parameters
Measurement type:	3-D Scan
Data mode:	Fluorescence
EX  Start WL:	200.0 nm
EX  End WL:	450.0 nm
EX Sampling Interval:	5.0 nm
EM  Start WL:	280.0 nm
EM  End WL:	550.0 nm
EM Sampling Interval:	5.0 nm
Scan speed:	12000 nm/min
EX Slit:	5.0 nm
EM Slit:	5.0 nm
PMT Voltage:	700 V
Response:	Auto 
Corrected spectra:	Off
Shutter control:	On
Contour interval:	25.000

Peak integration
Integration method:	Rectangular
Sensitivity:	1
Threshold:	1.000

Peaks
No.	ApexEX/EM(nm)	Height(Data)
1	210.0/320.0	740.6
2	215.0/480.0	460.9
3	215.0/535.0	175.4
4	215.0/545.0	133.7
5	225.0/305.0	841.3
6	225.0/395.0	 1187
7	225.0/470.0	698.6
8	230.0/340.0	 1663
9	235.0/405.0	 1314
10	240.0/390.0	 1270
11	240.0/410.0	 1323
12	240.0/435.0	 1252
13	245.0/370.0	 1268
14	245.0/385.0	 1317
15	245.0/395.0	 1345
16	245.0/405.0	 1308
17	245.0/415.0	 1351
18	245.0/440.0	 1209
19	250.0/330.0	 1145
20	250.0/360.0	 1312
21	250.0/400.0	 1340
22	250.0/430.0	 1270
23	255.0/340.0	 1190
24	255.0/355.0	 1203
25	255.0/410.0	 1308
26	260.0/375.0	 1187
27	260.0/395.0	 1195
28	260.0/425.0	 1295
29	265.0/360.0	 1186
30	265.0/370.0	 1172
31	265.0/380.0	 1141
32	265.0/415.0	 1266
33	265.0/430.0	 1327
34	265.0/490.0	726.1
35	270.0/445.0	 1260
36	275.0/305.0	987.2
37	275.0/420.0	 1294
38	280.0/310.0	 1221
39	280.0/345.0	 1318
40	280.0/370.0	 1248
41	280.0/400.0	 1242
42	280.0/410.0	 1267
43	280.0/440.0	 1244
44	285.0/315.0	 1293
45	285.0/375.0	 1200
46	285.0/395.0	 1195
47	290.0/320.0	 1147
48	305.0/340.0	803.6
49	310.0/345.0	717.7
50	315.0/350.0	696.3
51	320.0/360.0	735.5
52	320.0/420.0	 1218
53	325.0/365.0	800.6
54	330.0/370.0	810.7
55	330.0/420.0	 1229
56	335.0/380.0	867.2
57	340.0/385.0	892.3
58	355.0/405.0	934.5
59	360.0/410.0	956.6
60	365.0/285.0	6.408
61	410.0/305.0	5.113
62	420.0/310.0	5.496
63	425.0/320.0	5.986
64	430.0/360.0	7.514
65	435.0/510.0	143.9
66	440.0/300.0	4.424
67	440.0/515.0	132.5
68	445.0/310.0	5.847
69	445.0/400.0	10.71

Data Points
	200.0	205.0	210.0	215.0	220.0	225.0	230.0	235.0	240.0	245.0	250.0	255.0	260.0	265.0	270.0	275.0	280.0	285.0	290.0	295.0	300.0	305.0	310.0	315.0	320.0	325.0	330.0	335.0	340.0	345.0	350.0	355.0	360.0	365.0	370.0	375.0	380.0	385.0	390.0	395.0	400.0	405.0	410.0	415.0	420.0	425.0	430.0	435.0	440.0	445.0	450.0
280.0	89.61	67.71	44.03	59.73	68.19	48.00	28.25	48.66	65.94	177.6	190.1	235.0	133.0	42.93	25.10	 1220	 7215	 2689	75.11	15.53	13.55	11.03	9.975	6.094	6.057	5.395	4.829	4.974	4.360	5.062	6.358	4.686	4.214	5.440	4.571	4.612	3.066	2.747	3.058	3.181	1.918	2.182	2.916	2.091	1.521	1.431	2.267	1.479	1.447	2.342	1.692
285.0	147.2	171.5	124.9	172.0	148.9	145.2	103.4	99.90	143.5	302.9	510.6	422.4	348.1	183.8	85.30	115.5	 2886	9999.9	 9897	461.7	23.84	16.04	15.90	14.82	6.511	6.773	9.239	6.444	5.180	5.903	5.846	5.288	4.682	6.408	4.300	3.765	3.584	3.275	3.144	4.025	2.268	3.268	2.670	1.997	1.759	1.720	1.797	1.584	2.127	2.628	2.061
290.0	341.7	216.4	200.2	199.7	288.0	291.4	215.1	172.6	211.6	461.2	628.0	570.2	417.5	447.7	193.8	116.9	272.0	 6518	9999.9	9999.9	648.1	29.36	23.31	18.43	10.51	10.30	9.664	6.808	7.345	7.062	5.269	5.487	4.981	5.403	5.615	4.357	4.776	4.200	3.369	3.922	3.443	2.962	3.000	2.208	2.827	2.276	1.921	2.339	1.844	2.352	1.912
295.0	348.5	324.5	275.3	344.4	496.2	467.7	333.4	259.7	278.6	495.4	659.3	632.0	419.4	440.1	555.5	290.4	228.9	566.5	9999.9	9999.9	9999.9	791.8	35.05	23.05	23.68	18.40	11.13	9.455	7.684	6.671	5.253	5.678	5.894	4.323	5.431	6.433	5.712	4.147	2.312	5.007	4.206	3.411	3.281	2.358	3.153	2.121	2.444	3.008	2.859	2.618	3.371
300.0	510.9	393.5	446.9	494.1	556.7	642.3	594.5	354.6	353.7	570.1	645.1	577.8	480.8	382.1	640.5	741.5	387.8	296.1	790.2	9999.9	9999.9	9999.9	839.1	40.05	32.25	24.25	20.20	15.25	10.30	7.936	9.528	8.943	6.495	6.737	8.026	6.146	6.254	4.644	5.380	4.578	5.419	3.792	3.411	3.578	2.960	4.027	3.469	4.077	4.424	3.540	4.374
305.0	599.3	544.8	504.5	591.3	659.1	841.3	600.6	505.0	515.5	561.9	695.7	647.8	518.2	455.9	562.3	987.2	836.4	424.9	310.0	780.7	9999.9	9999.9	9999.9	962.5	38.75	30.80	24.79	20.97	15.17	7.902	11.63	7.982	7.292	9.041	8.473	5.981	5.683	4.729	4.515	4.393	4.071	4.294	5.113	3.779	3.897	3.902	3.525	4.494	3.932	3.055	4.199
310.0	508.0	566.1	698.7	626.6	750.1	807.2	843.4	638.9	607.5	661.7	719.6	720.5	638.6	541.8	605.3	792.9	 1221	785.9	388.6	268.9	758.2	9999.9	9999.9	9999.9	976.9	50.51	34.40	27.09	20.75	18.15	11.38	11.95	8.563	8.157	7.293	7.532	6.781	5.878	3.446	4.496	4.505	4.015	3.634	3.288	5.496	4.649	3.385	3.898	3.467	5.847	5.602
315.0	639.3	624.7	660.2	666.6	671.9	827.0	859.8	808.2	718.9	755.2	852.7	790.8	724.5	692.8	754.0	837.9	 1034	 1293	637.4	304.9	205.7	743.4	9999.9	9999.9	9999.9	856.5	47.90	36.11	33.95	22.31	17.67	13.77	13.09	10.62	6.259	7.732	6.333	7.412	4.770	4.764	5.573	4.773	3.783	4.650	5.002	4.961	3.754	3.361	3.095	5.485	5.466
320.0	603.7	696.4	740.6	665.2	791.2	 1047	 1004	973.0	860.3	906.5	 1024	939.8	844.6	806.9	803.2	991.9	971.9	 1125	 1147	493.6	230.9	193.8	750.2	9999.9	9999.9	9999.9	839.9	57.94	40.06	33.28	26.35	16.93	12.09	10.13	11.07	8.420	7.030	7.132	5.982	5.505	5.634	4.669	5.837	4.558	5.232	5.986	4.228	4.458	4.365	5.173	6.542
325.0	605.9	729.5	718.5	876.9	926.8	 1193	 1357	 1149	993.4	 1060	 1045	 1060	958.4	851.3	930.0	 1109	 1135	 1040	 1114	954.6	374.0	203.6	186.6	761.4	9999.9	9999.9	9999.9	925.9	55.40	45.78	37.04	22.18	17.70	12.89	10.77	8.715	7.296	7.057	6.995	5.722	5.567	6.108	5.916	5.129	3.902	4.686	4.624	5.668	5.188	5.064	6.577
330.0	494.7	610.3	695.3	752.7	978.8	 1271	 1381	 1393	 1227	 1117	 1145	 1093	 1094	973.2	 1053	 1158	 1188	 1185	955.4	 1026	734.3	293.7	198.1	189.5	759.9	9999.9	9999.9	9999.9	888.9	60.43	45.68	36.75	22.55	17.18	13.11	9.408	9.248	9.746	6.360	7.158	5.887	6.164	4.670	4.756	5.079	4.662	4.809	4.727	5.963	5.612	5.862
335.0	430.1	662.9	696.7	908.8	976.5	 1276	 1531	 1500	 1263	 1182	 1116	 1160	 1134	 1026	 1095	 1230	 1252	 1216	 1016	825.2	884.4	552.8	253.5	189.0	186.7	755.3	9999.9	9999.9	9999.9	963.0	65.34	54.34	38.18	27.92	19.65	15.33	11.91	9.851	7.427	6.608	7.304	5.765	5.655	5.240	5.168	4.423	5.548	5.357	5.136	4.825	6.674
340.0	533.4	609.3	761.8	788.1	 1060	 1302	 1663	 1589	 1329	 1154	 1115	 1190	 1026	992.4	 1092	 1241	 1269	 1229	 1094	797.7	671.8	803.6	458.1	231.3	177.9	187.3	756.4	9999.9	9999.9	9999.9	 1021	70.71	50.50	36.46	28.25	17.79	14.57	10.63	9.475	8.541	6.773	6.976	6.601	5.816	6.072	5.675	4.888	5.881	6.267	6.014	6.813
345.0	398.7	565.1	710.9	838.5	942.9	 1279	 1512	 1528	 1347	 1155	 1183	 1120	 1118	994.3	 1104	 1230	 1318	 1219	 1115	838.3	633.6	613.2	717.7	384.7	226.3	182.4	184.4	749.5	9999.9	9999.9	9999.9	 1122	75.06	46.50	34.05	26.81	18.22	12.95	10.14	8.335	8.029	7.283	5.530	5.905	6.130	5.821	5.227	6.138	5.726	6.696	6.056
350.0	546.7	544.0	694.9	741.6	929.5	 1184	 1534	 1467	 1429	 1205	 1233	 1183	 1056	 1029	 1081	 1227	 1248	 1201	 1107	886.1	701.4	569.7	616.1	696.3	354.0	238.2	186.5	195.7	755.9	9999.9	9999.9	9999.9	 1136	70.93	49.56	38.78	23.55	16.94	12.00	10.28	7.668	6.937	6.142	5.769	6.889	5.734	6.476	5.037	5.249	6.178	7.071
355.0	461.1	571.9	554.0	681.2	845.5	 1223	 1330	 1318	 1333	 1183	 1174	 1203	 1141	 1046	 1124	 1171	 1268	 1242	 1106	920.1	737.8	603.6	537.5	672.0	652.3	357.2	271.9	216.1	200.5	757.1	9999.9	9999.9	9999.9	 1195	73.42	54.00	36.28	29.43	18.16	11.03	11.30	7.905	8.270	5.781	6.422	5.294	5.038	6.148	5.002	6.178	6.475
360.0	409.9	396.1	621.0	798.8	958.6	 1096	 1226	 1303	 1352	 1239	 1312	 1180	 1172	 1186	 1113	 1170	 1218	 1223	 1109	933.9	761.4	685.4	573.1	586.8	735.5	610.5	366.0	290.7	227.0	213.0	759.0	9999.9	9999.9	9999.9	 1134	75.97	51.42	33.41	25.46	17.52	10.69	9.866	7.128	7.086	6.163	4.450	7.514	5.826	4.285	6.764	6.224
365.0	380.4	452.9	684.0	736.1	936.8	984.6	 1202	 1292	 1229	 1236	 1155	 1104	 1105	 1125	 1151	 1184	 1199	 1178	 1142	954.8	794.5	747.9	692.1	627.4	669.5	800.6	567.4	381.9	292.5	218.6	208.1	750.8	9999.9	9999.9	9999.9	 1235	77.44	44.98	30.58	21.50	16.49	11.10	10.13	7.220	7.412	5.806	6.076	5.211	4.379	5.932	6.692
370.0	344.1	483.3	572.3	726.0	888.0	 1008	 1216	 1302	 1167	 1268	 1181	 1106	 1157	 1172	 1110	 1191	 1248	 1191	 1126	989.7	879.3	812.7	763.4	737.1	669.9	697.3	810.7	554.6	388.3	302.9	219.3	203.1	740.9	9999.9	9999.9	9999.9	 1199	64.62	44.78	29.80	23.10	13.81	11.25	7.787	7.044	6.770	5.663	6.494	6.440	6.316	7.528
375.0	360.1	451.2	562.4	681.6	737.7	 1006	 1096	 1235	 1213	 1264	 1240	 1140	 1187	 1110	 1152	 1198	 1195	 1200	 1087	 1020	945.8	854.6	862.1	809.0	779.4	728.2	801.3	818.0	505.4	373.6	294.9	221.0	200.7	751.7	9999.9	9999.9	9999.9	 1291	57.58	42.75	24.73	21.93	14.59	10.94	8.202	7.416	6.177	6.110	5.903	6.236	7.798
380.0	336.6	416.6	493.6	682.3	838.0	985.3	 1107	 1179	 1217	 1229	 1261	 1204	 1116	 1141	 1133	 1138	 1198	 1172	 1106	 1051	980.8	961.1	920.9	886.8	840.8	805.3	775.7	867.2	781.1	492.3	369.9	283.6	209.9	195.1	746.4	9999.9	9999.9	9999.9	 1141	54.33	39.30	25.50	20.28	14.82	10.59	8.437	7.606	5.407	5.006	6.742	7.771
385.0	296.2	357.4	610.6	760.1	761.0	984.4	 1241	 1203	 1254	 1317	 1299	 1193	 1144	 1112	 1147	 1149	 1195	 1170	 1082	 1069	 1014	997.5	 1004	978.0	944.2	915.3	857.7	805.3	892.3	699.2	469.0	371.4	294.1	218.1	194.5	752.4	9999.9	9999.9	9999.9	 1165	54.11	43.91	27.37	19.44	12.27	10.61	8.910	7.050	6.015	6.428	5.504
390.0	343.8	485.4	558.9	657.7	751.7	971.0	 1186	 1188	 1270	 1230	 1288	 1181	 1182	 1174	 1139	 1134	 1165	 1116	 1133	 1073	 1044	 1015	 1032	 1063	 1026	963.7	941.5	834.6	837.1	870.3	645.1	463.4	370.4	286.0	215.0	191.7	739.7	 9710	9999.9	9999.9	 1101	54.42	33.56	25.23	18.34	11.85	12.26	9.912	6.905	6.185	6.774
395.0	304.3	389.5	503.8	671.0	862.2	 1187	 1098	 1166	 1219	 1345	 1233	 1130	 1195	 1159	 1101	 1160	 1112	 1195	 1117	 1100	 1076	 1104	 1081	 1100	 1084	 1054	 1008	958.1	885.4	852.2	863.7	597.9	477.1	401.5	295.8	231.5	199.7	727.7	 9108	9999.9	9999.9	 1097	48.25	35.26	25.21	17.21	14.40	9.723	9.296	8.651	7.438
400.0	341.9	429.9	637.4	697.1	946.8	 1028	 1208	 1210	 1256	 1283	 1340	 1168	 1163	 1155	 1131	 1177	 1242	 1164	 1160	 1128	 1074	 1113	 1152	 1122	 1136	 1122	 1104	 1052	985.8	887.9	925.8	844.8	619.0	495.7	398.7	307.3	214.8	189.1	686.7	 8901	9999.9	9999.9	974.5	49.65	31.20	20.08	15.54	13.02	8.687	10.71	7.367
405.0	323.7	475.1	667.4	743.9	818.8	 1119	 1167	 1314	 1240	 1308	 1301	 1293	 1272	 1180	 1154	 1189	 1215	 1189	 1156	 1106	 1087	 1150	 1145	 1190	 1149	 1155	 1143	 1103	 1054	975.7	891.7	934.5	820.4	607.0	477.1	367.0	286.7	205.9	183.2	663.3	 7896	9999.9	9999.9	866.2	45.24	27.73	22.82	16.54	11.69	9.676	7.855
410.0	274.3	477.2	587.0	799.1	892.8	 1186	 1225	 1272	 1323	 1288	 1278	 1308	 1201	 1250	 1204	 1184	 1267	 1182	 1166	 1109	 1096	 1138	 1154	 1197	 1205	 1200	 1212	 1168	 1100	 1039	962.5	912.7	956.6	773.6	565.8	445.0	336.2	246.3	187.7	163.4	584.8	 7677	9999.9	9999.9	802.7	43.68	27.20	20.81	13.44	12.24	9.068
415.0	230.3	379.9	559.6	759.9	892.8	 1049	 1157	 1222	 1287	 1351	 1273	 1211	 1258	 1266	 1173	 1269	 1242	 1185	 1133	 1077	 1074	 1119	 1150	 1178	 1211	 1210	 1198	 1208	 1161	 1065	 1024	954.7	904.8	890.1	724.3	520.2	403.2	293.1	224.9	157.3	141.8	564.3	 7260	9999.9	9999.9	814.7	38.84	24.67	19.34	15.67	11.98
420.0	209.0	322.5	565.5	719.0	804.1	 1011	 1186	 1179	 1271	 1338	 1208	 1229	 1253	 1252	 1251	 1294	 1219	 1146	 1138	 1097	 1074	 1093	 1137	 1186	 1218	 1198	 1229	 1215	 1158	 1103	 1036	983.7	920.0	906.2	858.4	622.9	465.5	353.2	259.4	183.9	143.0	129.3	523.6	 6912	9999.9	9999.9	718.7	37.33	24.47	18.76	14.52
425.0	278.9	457.6	489.8	796.1	824.3	 1038	 1149	 1148	 1155	 1159	 1233	 1246	 1295	 1292	 1255	 1284	 1258	 1214	 1121	 1109	 1010	 1095	 1101	 1148	 1161	 1208	 1222	 1210	 1172	 1143	 1072	 1013	944.2	902.4	871.9	729.0	529.3	405.7	305.6	228.2	165.2	126.9	111.6	500.2	 6439	9999.9	9999.9	643.4	36.04	25.94	17.05
430.0	227.7	349.3	410.1	657.6	851.1	838.7	 1170	 1201	 1217	 1153	 1270	 1221	 1290	 1327	 1278	 1260	 1265	 1189	 1092	 1045	 1020	 1047	 1099	 1123	 1167	 1150	 1174	 1193	 1161	 1139	 1084	 1048	956.3	907.9	853.7	808.9	635.6	448.6	325.0	263.4	189.6	137.3	106.7	105.3	461.4	 6142	9999.9	9999.9	563.0	35.98	23.17
435.0	247.6	322.9	451.1	645.8	774.9	932.9	 1065	 1125	 1252	 1193	 1233	 1259	 1267	 1256	 1231	 1203	 1214	 1120	 1088	999.3	963.6	 1020	 1044	 1089	 1129	 1173	 1165	 1185	 1141	 1121	 1093	 1069	989.6	946.5	827.6	763.1	716.5	518.2	388.2	294.0	221.5	166.5	123.0	102.2	101.4	442.8	 5985	9999.9	9999.9	570.1	31.62
440.0	338.1	443.1	496.2	644.8	731.4	932.1	 1026	 1070	 1114	 1209	 1138	 1206	 1253	 1256	 1210	 1219	 1244	 1148	 1062	975.1	932.0	959.5	981.5	 1054	 1079	 1096	 1088	 1122	 1133	 1100	 1084	 1048	975.3	950.1	852.9	763.3	684.5	609.9	432.9	323.2	245.6	178.3	149.7	110.6	91.84	92.39	432.4	 6024	9999.9	9999.9	484.0
445.0	236.0	361.7	368.5	662.1	699.3	806.1	951.3	 1044	 1103	 1138	 1114	 1103	 1245	 1161	 1260	 1234	 1168	 1103	 1020	921.9	907.7	921.0	942.3	982.0	 1012	 1055	 1043	 1080	 1085	 1053	 1053	 1010	979.2	938.4	852.9	754.2	643.6	597.2	506.1	350.7	267.7	218.6	166.9	130.5	107.1	83.58	86.54	429.8	 6079	9999.9	9999.9
450.0	217.3	366.9	374.1	551.0	684.4	637.7	877.4	950.5	991.4	 1087	 1065	 1099	 1077	 1119	 1177	 1165	 1120	 1129	979.3	865.9	857.9	855.0	899.8	927.4	957.7	986.1	 1015	 1040	 1052	 1031	 1013	968.5	953.8	875.8	830.7	739.6	639.2	549.5	523.7	418.8	294.3	236.8	194.0	146.3	125.2	91.85	69.15	87.18	431.8	 5783	9999.9
455.0	251.1	323.3	390.1	514.3	729.8	763.8	788.0	899.8	975.0	 1016	 1042	 1094	 1138	 1106	 1106	 1124	 1114	 1022	905.2	820.0	816.4	804.8	816.9	843.3	874.4	901.6	972.2	955.9	977.5	970.7	950.7	914.3	915.7	866.9	816.0	706.5	621.5	538.3	478.4	453.9	346.9	251.7	204.0	177.3	135.4	103.2	81.14	71.03	80.80	405.6	 5762
460.0	213.7	224.2	404.2	489.3	563.0	679.4	746.8	884.4	903.3	888.9	947.2	 1011	 1004	 1079	 1047	 1036	 1015	969.0	860.1	781.1	746.8	723.1	753.5	789.9	801.2	871.6	882.9	900.5	918.2	892.4	898.2	892.5	884.3	839.4	772.6	702.2	615.1	512.4	449.4	418.0	390.9	286.8	214.3	181.4	139.8	124.5	87.18	78.27	62.32	78.51	405.4
465.0	215.6	246.1	356.9	501.4	554.9	675.7	648.8	758.0	917.8	928.6	936.0	958.7	993.0	944.0	 1031	974.2	938.1	897.1	801.0	762.4	721.9	689.9	696.2	726.9	733.9	781.3	798.1	840.8	828.6	835.0	828.0	820.1	817.6	775.3	745.7	654.2	585.2	503.0	442.8	374.4	366.6	332.1	249.1	188.8	159.4	133.0	100.4	84.27	71.14	62.32	67.61
470.0	205.9	200.9	320.6	415.9	450.7	698.6	649.2	680.7	712.1	771.2	843.7	895.1	884.7	949.2	944.9	955.9	918.2	801.8	746.0	670.8	649.7	647.9	654.2	659.3	667.8	710.0	724.7	731.3	767.6	763.0	768.9	756.7	758.5	716.3	691.2	618.3	541.6	503.0	437.6	374.4	335.8	320.4	270.1	195.0	158.9	138.8	116.6	90.19	76.91	68.11	54.48
475.0	208.5	259.8	292.3	417.9	411.7	517.1	660.8	633.1	732.4	748.4	771.4	828.7	923.2	866.6	875.7	849.3	832.7	761.2	684.1	600.6	607.3	584.7	600.4	594.4	616.1	648.5	674.6	666.7	683.4	705.2	680.9	679.1	693.0	660.6	646.2	596.6	522.0	455.9	412.2	358.3	305.5	290.8	273.4	221.7	173.5	145.9	118.8	102.6	82.23	66.74	56.10
480.0	149.3	173.1	249.5	460.9	414.3	474.1	620.4	627.9	676.7	654.9	727.4	788.0	765.8	737.4	818.2	816.3	776.5	673.3	642.8	586.4	553.4	531.6	541.8	572.5	565.3	584.1	592.7	618.9	617.7	636.1	629.3	628.2	614.2	635.8	591.8	549.7	492.7	453.0	375.0	351.1	287.3	260.0	248.4	241.7	187.6	155.1	122.8	102.1	86.84	77.79	61.23
485.0	185.9	152.5	144.6	390.4	399.5	444.3	491.1	582.8	582.2	672.9	708.2	694.0	716.8	707.1	724.6	754.2	708.7	667.4	623.8	540.8	505.7	505.8	512.0	510.0	527.2	545.9	538.7	579.2	561.7	579.5	577.2	588.3	579.8	575.3	556.9	525.0	467.0	412.8	372.6	328.6	296.4	262.5	243.1	238.4	206.0	161.9	131.0	109.4	92.89	81.32	68.71
490.0	142.6	219.9	186.5	313.4	313.0	453.9	494.1	519.3	587.6	586.0	639.6	663.4	679.0	726.1	711.5	712.3	674.4	605.5	579.9	516.0	464.5	451.6	467.9	452.7	471.8	492.0	497.1	524.3	533.8	553.3	545.7	530.5	546.4	547.4	518.3	483.6	444.3	390.8	356.2	310.3	279.2	260.7	228.3	214.0	210.1	180.0	142.6	118.1	92.59	84.52	70.41
495.0	151.8	177.4	207.4	306.0	335.4	424.2	406.6	442.8	478.2	558.3	595.3	645.3	603.0	646.2	660.1	626.6	576.7	571.1	530.9	476.3	461.9	444.0	436.9	431.5	433.2	437.3	461.5	476.0	476.4	487.4	497.6	481.0	502.4	488.4	487.6	447.5	423.2	370.9	341.9	307.1	282.7	250.4	225.2	197.2	187.4	190.1	159.8	127.7	104.5	91.33	76.94
500.0	143.4	220.2	154.9	302.1	322.9	364.7	443.1	438.8	450.8	513.4	561.2	602.4	556.9	600.3	615.6	599.9	611.4	517.8	465.5	422.2	392.4	408.3	397.2	411.8	404.2	398.5	421.2	437.2	437.9	439.0	437.9	456.7	447.1	434.8	418.9	418.9	376.9	353.1	309.4	283.3	252.7	224.7	211.5	186.1	160.7	175.0	170.9	131.5	103.8	91.73	82.67
505.0	182.8	160.7	143.8	250.2	339.1	307.4	389.1	403.9	452.8	460.8	478.2	548.0	577.4	554.3	571.0	555.5	550.6	476.6	428.9	397.7	374.5	341.2	385.7	343.1	366.4	366.5	378.7	394.1	396.7	395.7	399.4	422.9	406.5	400.4	404.6	368.1	358.1	316.3	287.7	257.4	236.7	216.1	199.9	185.3	161.9	157.3	150.5	142.6	113.2	94.66	79.54
510.0	83.14	180.9	157.6	240.8	210.0	287.7	336.6	373.7	386.6	428.6	453.7	513.6	487.7	530.5	526.5	485.0	497.9	457.3	396.2	363.4	356.0	302.3	312.9	323.8	342.0	334.2	338.1	350.1	360.0	359.6	365.3	365.3	361.6	366.9	356.6	355.9	316.2	305.6	263.5	248.6	230.0	207.9	190.8	179.3	159.9	150.5	132.9	143.9	126.3	96.86	85.89
515.0	93.99	107.1	106.6	238.8	219.8	299.0	294.2	369.3	378.9	385.7	418.6	422.4	442.8	454.6	457.7	480.1	438.7	399.2	380.7	330.3	307.7	298.6	304.1	298.5	296.9	300.4	311.1	311.7	328.8	321.1	332.6	326.4	332.5	327.0	331.7	317.0	296.7	270.5	242.9	226.5	214.5	190.8	181.8	165.3	149.9	138.4	127.2	131.0	132.5	101.4	77.30
520.0	112.6	95.27	122.4	144.4	180.6	227.8	251.1	311.7	328.1	288.5	384.2	358.0	390.6	428.5	409.6	425.4	414.3	369.6	347.6	299.7	272.7	277.0	246.8	255.5	260.4	274.8	262.6	276.0	298.6	284.0	290.9	296.6	300.6	303.7	293.2	294.7	259.8	252.9	229.1	206.9	188.8	176.9	167.4	159.4	141.0	123.8	111.3	115.4	120.2	112.8	85.74
525.0	104.0	82.48	164.9	153.0	172.7	199.6	252.1	264.1	292.0	315.8	340.0	342.2	360.3	423.3	399.8	399.2	344.0	348.5	298.1	284.9	252.5	234.3	238.0	235.4	243.0	229.9	243.9	259.1	252.1	257.0	248.9	254.1	264.6	265.9	271.6	251.4	245.5	225.2	205.5	197.8	176.9	166.1	152.3	152.0	131.5	123.6	109.5	101.0	100.6	107.3	92.36
530.0	82.55	119.8	103.6	137.9	157.5	187.6	241.1	243.2	275.3	273.5	296.4	316.8	339.7	357.7	355.4	362.3	317.2	294.0	284.6	244.9	219.3	212.8	210.7	200.2	210.8	211.4	225.6	230.6	219.2	223.0	229.2	226.8	241.9	235.6	234.2	239.2	216.1	202.3	188.3	178.9	158.7	151.3	139.4	136.3	116.6	109.5	100.3	94.42	86.33	83.26	90.10
535.0	62.69	84.59	103.1	175.4	159.6	158.0	189.3	223.7	218.8	233.1	301.0	275.3	311.7	305.9	342.9	331.5	322.4	272.3	267.7	231.8	203.2	196.6	200.8	184.2	186.5	198.9	194.6	189.5	203.0	194.4	205.9	209.9	222.2	209.1	202.9	205.8	182.5	169.7	162.6	154.0	142.9	128.0	132.9	119.2	105.4	98.44	91.43	89.04	79.95	77.16	78.52
540.0	79.43	82.91	97.78	93.15	117.4	152.6	173.7	169.2	201.8	226.7	235.4	217.4	260.7	252.6	338.0	280.4	272.9	257.6	228.8	210.1	184.9	173.6	178.9	172.2	158.5	170.2	172.9	175.1	177.2	178.4	180.0	188.5	184.4	184.4	188.7	166.5	176.9	160.3	144.4	137.0	136.6	121.3	117.8	106.5	98.36	90.73	88.82	79.85	75.29	71.26	65.59
545.0	109.7	109.4	100.1	133.7	123.7	131.6	156.4	174.9	145.8	207.7	230.0	239.3	253.4	253.1	306.0	365.5	258.2	253.7	205.5	183.1	181.2	160.3	161.5	143.2	152.6	147.0	154.8	149.6	149.6	146.1	163.5	171.3	158.5	160.5	157.2	169.3	156.4	149.4	133.0	122.6	114.1	104.5	105.3	103.3	92.83	82.49	76.51	73.80	70.08	68.10	59.71
550.0	80.01	49.22	74.37	124.6	126.6	150.8	141.3	166.1	192.0	188.6	203.5	208.1	196.2	232.7	234.9	495.6	309.0	213.4	179.6	184.0	153.7	141.8	146.8	139.1	139.2	150.0	136.3	139.9	139.1	139.4	134.8	145.0	144.3	140.8	148.4	137.0	140.7	119.2	119.3	111.9	101.2	101.7	90.00	90.89	84.96	76.13	78.59	75.22	63.62	62.03	55.29
