Sample:	'SLABO1-5-5-320
File name:	2P6.FD3
Run Date:	17:09:09, 08/17/2022
Operator:	Administrator
Comment:	'

Instrument
Model:	F-7000 FL Spectrophotometer
Serial Number:	2354-007
ROM Version:	5J14000 06

Instrument Parameters
Measurement type:	3-D Scan
Data mode:	Fluorescence
EX  Start WL:	200.0 nm
EX  End WL:	450.0 nm
EX Sampling Interval:	5.0 nm
EM  Start WL:	280.0 nm
EM  End WL:	550.0 nm
EM Sampling Interval:	5.0 nm
Scan speed:	12000 nm/min
EX Slit:	5.0 nm
EM Slit:	5.0 nm
PMT Voltage:	700 V
Response:	Auto 
Corrected spectra:	Off
Shutter control:	On
Contour interval:	25.000

Peak integration
Integration method:	Rectangular
Sensitivity:	1
Threshold:	1.000

Peaks
No.	ApexEX/EM(nm)	Height(Data)
1	205.0/325.0	669.5
2	205.0/350.0	746.9
3	210.0/360.0	696.6
4	210.0/495.0	340.9
5	210.0/525.0	196.1
6	210.0/545.0	142.6
7	215.0/510.0	320.4
8	220.0/300.0	659.5
9	220.0/495.0	442.1
10	220.0/530.0	236.9
11	220.0/545.0	199.0
12	225.0/315.0	823.4
13	225.0/340.0	959.4
14	225.0/370.0	964.6
15	225.0/400.0	 1118
16	225.0/470.0	695.7
17	230.0/330.0	931.4
18	230.0/345.0	984.4
19	230.0/355.0	 1078
20	230.0/395.0	 1117
21	230.0/405.0	 1112
22	230.0/490.0	586.3
23	230.0/500.0	501.4
24	235.0/365.0	975.9
25	235.0/400.0	 1109
26	235.0/420.0	 1127
27	235.0/505.0	455.1
28	235.0/535.0	265.5
29	245.0/380.0	 1063
30	245.0/395.0	 1177
31	245.0/460.0	 1013
32	255.0/415.0	 1341
33	260.0/325.0	620.2
34	270.0/440.0	 1472
35	275.0/305.0	786.0
36	275.0/420.0	 1521
37	280.0/310.0	985.7
38	280.0/410.0	 1471
39	280.0/435.0	 1488
40	285.0/315.0	 1024
41	285.0/415.0	 1434
42	290.0/320.0	840.8
43	290.0/400.0	 1331
44	295.0/330.0	777.5
45	295.0/415.0	 1391
46	300.0/335.0	701.2
47	305.0/340.0	678.9
48	310.0/345.0	647.8
49	310.0/420.0	 1433
50	315.0/355.0	679.0
51	315.0/415.0	 1473
52	320.0/360.0	772.9
53	325.0/365.0	860.4
54	335.0/380.0	952.8
55	380.0/300.0	16.01
56	410.0/315.0	10.16
57	420.0/320.0	10.33
58	435.0/355.0	11.50
59	440.0/335.0	10.46

Data Points
	200.0	205.0	210.0	215.0	220.0	225.0	230.0	235.0	240.0	245.0	250.0	255.0	260.0	265.0	270.0	275.0	280.0	285.0	290.0	295.0	300.0	305.0	310.0	315.0	320.0	325.0	330.0	335.0	340.0	345.0	350.0	355.0	360.0	365.0	370.0	375.0	380.0	385.0	390.0	395.0	400.0	405.0	410.0	415.0	420.0	425.0	430.0	435.0	440.0	445.0	450.0
280.0	100.8	59.14	61.07	54.77	54.56	24.91	29.89	12.57	25.88	35.96	32.87	50.12	49.07	24.71	15.10	 2669	9999.9	 5283	146.8	26.41	27.80	30.75	20.41	18.36	14.85	15.51	13.62	12.42	14.73	11.67	11.59	9.744	11.31	12.89	9.577	9.696	8.640	6.202	7.845	6.346	5.475	5.047	4.011	4.231	5.937	2.803	3.619	3.212	3.289	2.070	2.172
285.0	147.9	129.8	137.0	172.9	140.7	160.5	104.7	65.41	46.76	96.67	99.25	82.35	145.8	108.5	53.55	226.1	 6107	9999.9	9999.9	993.5	40.34	40.31	32.76	27.87	21.66	17.82	17.97	15.71	15.29	13.90	11.63	13.02	13.09	10.84	13.61	8.749	9.695	8.440	7.618	5.136	6.198	5.024	5.523	5.785	4.014	4.411	3.252	4.199	4.267	3.551	2.060
290.0	316.9	250.8	205.9	305.1	308.2	328.0	197.8	105.1	85.21	94.64	166.1	129.1	184.0	273.1	173.9	147.9	503.8	9999.9	9999.9	9999.9	 1315	57.40	48.84	45.23	38.16	28.35	21.31	21.50	15.71	14.42	14.43	13.00	12.34	13.54	13.04	10.59	10.59	10.16	10.99	7.855	7.105	6.593	7.124	4.864	4.478	5.309	3.707	4.463	3.659	4.360	4.037
295.0	422.2	350.0	349.0	360.6	432.0	444.8	353.4	169.0	126.2	115.6	155.5	201.1	184.5	298.8	441.1	283.0	239.4	818.4	9999.9	9999.9	9999.9	 1674	71.36	63.39	50.54	37.77	29.20	21.41	22.05	20.07	13.54	16.19	13.95	12.60	13.70	11.60	12.50	7.885	8.125	8.101	8.434	6.650	6.950	5.627	5.266	4.959	5.539	4.545	3.325	5.388	4.703
300.0	498.4	452.4	460.2	566.1	659.5	622.1	463.9	273.3	181.3	178.3	206.7	227.5	257.9	306.7	566.0	587.7	381.7	313.8	837.6	9999.9	9999.9	9999.9	 1738	95.95	78.24	59.71	46.64	33.56	26.58	22.93	20.72	19.45	16.88	16.72	14.54	13.93	16.01	11.51	9.445	11.23	10.25	7.124	6.616	6.086	6.305	6.070	6.380	4.520	4.259	5.133	5.531
305.0	644.0	472.5	558.0	642.6	605.5	723.5	545.7	459.7	296.3	271.3	297.2	294.1	276.7	364.7	452.4	786.0	722.7	374.6	280.4	818.8	9999.9	9999.9	9999.9	 2077	107.1	85.57	61.90	46.93	37.10	31.34	23.14	21.38	17.04	19.51	17.55	15.60	12.68	11.56	9.603	11.06	9.327	8.340	7.560	7.692	6.553	5.949	5.299	5.442	5.519	5.859	5.715
310.0	586.8	523.8	544.1	555.2	687.2	727.0	642.1	424.5	361.2	345.3	421.2	365.6	401.4	430.8	472.8	649.9	985.7	655.1	319.9	230.4	841.6	9999.9	9999.9	9999.9	 2148	118.8	91.98	69.93	57.06	37.82	28.93	24.92	25.19	19.65	17.18	17.25	16.88	14.04	12.00	11.57	10.11	10.05	9.663	8.054	8.596	8.527	6.699	6.014	6.523	6.176	5.668
315.0	632.5	702.4	636.1	632.5	723.2	823.4	672.7	548.3	396.9	437.4	479.1	445.5	452.1	477.4	558.5	626.0	775.5	 1024	475.3	251.3	215.5	808.4	9999.9	9999.9	9999.9	 1910	128.6	101.5	79.57	61.20	38.41	35.38	30.08	24.43	21.97	18.45	18.06	13.76	12.80	11.44	12.24	8.598	10.16	9.608	8.985	8.276	7.005	8.316	6.294	7.016	8.040
320.0	664.7	624.7	624.4	577.0	798.3	760.1	721.1	604.4	490.7	532.4	546.2	562.3	530.6	531.8	614.0	678.0	746.4	816.0	840.8	381.8	194.7	195.7	841.0	9999.9	9999.9	9999.9	 1972	144.3	105.0	83.87	62.25	41.42	33.71	29.79	21.48	22.90	20.17	17.54	15.75	11.62	10.41	9.741	8.921	10.00	10.33	8.496	6.716	8.200	7.044	7.967	7.013
325.0	507.6	669.5	633.4	691.5	769.3	792.6	737.5	662.8	536.5	582.9	584.6	579.0	620.2	572.6	675.5	710.0	822.9	716.5	801.0	718.6	286.4	193.0	211.0	838.7	9999.9	9999.9	9999.9	 2105	161.7	106.3	85.47	68.52	50.56	35.88	30.35	24.60	20.16	20.02	16.44	13.91	12.68	9.566	9.536	9.350	9.385	7.848	7.330	8.259	7.960	9.523	6.887
330.0	447.6	665.8	632.5	696.5	828.4	889.9	931.4	712.3	624.8	553.7	598.0	580.5	568.1	581.5	726.7	793.1	827.9	782.0	668.8	777.5	582.4	236.6	189.8	208.6	839.7	9999.9	9999.9	9999.9	 2079	161.3	117.4	101.9	70.06	50.17	38.18	31.94	22.99	18.96	16.97	16.41	14.37	13.55	11.33	9.887	8.805	9.136	10.52	9.051	7.773	7.331	6.907
335.0	515.7	501.3	671.4	693.4	846.6	900.3	881.4	719.9	672.8	615.4	660.7	615.6	651.7	604.1	733.9	800.4	881.8	823.7	737.3	566.1	701.2	471.9	229.5	199.6	212.4	855.5	9999.9	9999.9	9999.9	 2215	174.4	137.1	94.29	80.81	47.33	40.15	28.24	22.29	19.45	15.24	14.27	12.10	11.99	10.68	9.571	9.916	10.11	8.089	10.46	8.016	9.174
340.0	448.5	622.7	652.0	661.9	795.0	959.4	921.8	807.6	722.5	662.8	680.0	624.0	652.9	645.6	755.1	865.2	922.2	911.8	779.1	617.6	514.9	678.9	401.8	235.2	201.7	230.3	871.9	9999.9	9999.9	9999.9	 2496	194.4	138.0	102.8	73.88	52.71	35.65	28.05	20.37	20.27	15.40	12.21	13.00	12.34	11.16	10.61	11.12	10.28	6.564	8.024	9.348
345.0	548.5	604.2	565.6	771.5	735.8	879.7	984.4	831.2	816.6	640.6	655.6	678.1	624.7	660.1	749.5	925.0	957.6	932.4	812.8	647.2	510.1	519.7	647.8	376.3	247.3	225.9	240.5	863.3	9999.9	9999.9	9999.9	 2762	198.5	145.1	98.70	75.71	49.10	36.58	26.35	20.99	19.24	14.99	12.70	11.31	10.65	10.30	9.391	9.255	9.513	7.682	9.690
350.0	567.2	746.9	649.8	612.7	869.0	928.3	928.6	841.5	815.8	793.0	759.4	723.7	649.6	744.3	783.8	892.4	984.3	991.9	885.8	700.6	581.9	493.0	577.5	671.7	375.3	289.0	251.7	268.6	879.1	9999.9	9999.9	9999.9	 2857	214.5	145.7	97.88	69.33	46.78	38.61	25.40	19.36	18.13	15.25	11.59	10.45	10.47	11.37	9.752	9.878	8.195	7.907
355.0	554.2	536.0	527.2	709.9	828.2	960.6	 1078	902.7	917.4	773.1	756.0	712.2	737.3	784.9	858.0	966.7	986.0	 1009	948.6	775.1	660.6	574.3	528.0	679.0	659.5	382.9	327.7	297.9	291.3	883.9	9999.9	9999.9	9999.9	 3021	209.5	152.9	101.7	77.97	48.31	32.55	25.19	22.01	15.88	13.01	11.99	9.469	10.41	11.50	8.044	10.09	8.772
360.0	464.0	651.7	696.6	655.0	798.0	930.3	 1000	961.6	837.9	895.8	806.2	793.0	827.5	813.1	907.2	990.2	 1020	 1068	957.5	804.2	720.9	660.9	624.0	595.7	772.9	647.9	426.2	347.6	317.9	300.1	890.5	9999.9	9999.9	9999.9	 2831	218.9	139.7	96.42	68.89	44.59	31.04	25.47	18.04	17.11	12.93	11.94	11.71	11.33	8.716	8.786	8.595
365.0	505.8	478.6	636.2	632.1	870.5	884.0	964.6	975.9	912.7	847.8	842.9	857.8	848.6	856.5	972.7	 1051	 1017	 1086	 1001	898.1	835.7	732.3	710.5	678.3	702.7	860.4	637.1	476.2	381.2	316.6	299.5	881.2	9999.9	9999.9	9999.9	 3295	204.4	128.6	97.38	66.95	43.99	31.96	22.30	19.26	13.49	13.90	10.61	10.74	9.996	10.62	10.46
370.0	432.2	576.0	544.4	642.2	786.1	964.6	952.4	943.2	933.4	956.7	882.8	883.6	889.2	943.4	 1033	 1051	 1086	 1080	 1016	935.9	891.5	830.9	793.2	789.1	764.1	808.9	872.5	632.0	477.4	370.4	321.8	291.0	878.7	9999.9	9999.9	9999.9	 3206	194.2	128.1	88.75	59.87	43.58	29.07	20.94	17.01	16.05	12.47	10.20	9.787	10.87	9.282
375.0	470.5	555.4	584.3	737.5	827.2	906.9	967.0	957.2	936.8	964.0	 1004	905.1	965.9	996.6	 1091	 1112	 1150	 1128	 1063	 1007	953.3	923.8	926.0	888.4	856.0	843.6	891.3	894.9	626.8	486.5	389.4	319.4	292.1	868.4	9999.9	9999.9	9999.9	 3378	184.5	123.0	78.53	57.57	39.26	31.58	21.21	17.70	12.16	11.85	12.49	10.99	9.855
380.0	549.3	460.7	684.1	746.5	702.5	 1001	989.0	934.4	 1019	 1063	971.7	948.3	 1017	 1088	 1124	 1198	 1154	 1179	 1121	 1076	 1014	 1003	996.4	974.5	984.3	924.0	895.8	952.8	856.7	599.0	476.4	365.4	296.5	293.0	876.2	9999.9	9999.9	9999.9	 3084	163.4	118.1	79.28	54.90	39.69	26.99	23.32	16.56	13.44	13.87	11.46	10.87
385.0	525.8	623.1	701.9	694.7	792.0	 1007	 1030	920.4	 1026	985.2	 1055	 1032	 1071	 1151	 1183	 1189	 1214	 1240	 1140	 1165	 1067	 1089	 1079	 1077	 1084	 1028	992.1	919.0	974.4	794.2	570.4	443.6	365.1	293.8	272.5	869.2	9999.9	9999.9	9999.9	 3205	161.0	106.3	79.53	51.36	35.52	25.67	20.31	16.92	12.81	12.36	10.52
390.0	405.9	526.5	612.2	758.4	852.8	952.0	 1091	938.2	 1053	 1069	 1030	 1099	 1142	 1138	 1216	 1286	 1276	 1275	 1215	 1182	 1174	 1177	 1188	 1186	 1162	 1118	 1063	994.9	968.0	954.7	741.7	544.6	444.3	356.8	286.0	283.1	852.0	9999.9	9999.9	9999.9	 3028	152.2	97.78	69.55	48.56	31.19	24.35	20.29	15.51	13.36	11.24
395.0	482.7	507.8	681.1	806.3	870.7	945.5	 1117	 1060	 1100	 1177	 1113	 1126	 1096	 1213	 1218	 1293	 1304	 1260	 1253	 1274	 1202	 1228	 1295	 1260	 1245	 1187	 1170	 1077	988.6	961.5	938.0	686.3	506.3	455.4	355.9	277.7	260.1	832.6	9999.9	9999.9	9999.9	 3079	142.4	87.52	64.18	44.72	35.38	23.54	19.66	17.38	12.59
400.0	485.1	461.8	555.8	731.8	865.7	 1118	 1058	 1109	 1091	 1111	 1137	 1104	 1180	 1291	 1283	 1375	 1355	 1295	 1331	 1293	 1292	 1291	 1298	 1323	 1313	 1293	 1211	 1139	 1062	969.6	962.2	887.8	656.2	524.2	441.9	343.4	272.6	262.0	831.0	9999.9	9999.9	9999.9	 2696	137.6	88.72	57.57	45.39	31.17	23.27	18.14	16.00
405.0	555.7	599.1	530.2	908.1	997.6	984.2	 1112	 1024	 1141	 1169	 1149	 1205	 1246	 1311	 1322	 1416	 1427	 1375	 1305	 1324	 1305	 1342	 1331	 1393	 1325	 1320	 1266	 1232	 1135	 1044	974.2	963.6	835.7	643.8	511.9	411.2	321.9	256.7	237.1	811.2	9999.9	9999.9	9999.9	 2417	117.1	81.82	55.48	37.33	32.20	22.28	17.84
410.0	476.2	519.6	633.2	652.7	805.1	983.4	 1031	 1059	 1177	 1199	 1185	 1262	 1325	 1319	 1445	 1434	 1471	 1386	 1357	 1341	 1341	 1384	 1393	 1415	 1365	 1357	 1310	 1257	 1194	 1102	 1010	947.1	959.5	791.2	602.5	480.4	382.6	290.2	217.0	225.1	789.7	9999.9	9999.9	9999.9	 2258	117.8	78.27	53.43	38.44	28.38	19.58
415.0	453.7	612.4	653.9	735.0	 1017	987.8	 1051	 1084	 1084	 1151	 1262	 1341	 1289	 1413	 1408	 1404	 1401	 1434	 1388	 1391	 1389	 1391	 1405	 1473	 1387	 1371	 1345	 1282	 1212	 1148	 1034	981.4	945.0	929.9	745.3	550.9	446.1	340.0	249.8	207.0	197.3	781.0	9999.9	9999.9	9999.9	 2309	105.2	74.09	48.08	35.22	25.84
420.0	412.8	411.2	658.9	777.6	974.9	944.9	 1123	 1127	 1054	 1195	 1210	 1262	 1308	 1398	 1452	 1521	 1496	 1418	 1423	 1325	 1359	 1384	 1433	 1419	 1408	 1371	 1321	 1319	 1259	 1176	 1082	 1018	954.3	917.5	885.3	649.6	502.5	392.0	294.9	232.6	177.3	185.6	766.6	9999.9	9999.9	9999.9	 2011	104.2	69.98	45.50	33.67
425.0	404.2	515.5	557.0	809.4	733.5	 1082	 1102	 1110	 1143	 1206	 1256	 1299	 1359	 1449	 1487	 1490	 1444	 1420	 1343	 1361	 1315	 1329	 1390	 1360	 1395	 1351	 1309	 1286	 1246	 1176	 1124	 1040	971.7	898.4	896.8	771.2	556.8	429.9	344.9	264.2	217.4	164.9	174.7	754.5	9999.9	9999.9	9999.9	 1728	97.45	66.99	43.79
430.0	402.5	515.0	563.9	832.1	969.4	884.3	 1021	971.4	 1117	 1186	 1181	 1250	 1409	 1434	 1477	 1429	 1483	 1401	 1385	 1317	 1278	 1307	 1385	 1375	 1302	 1342	 1299	 1264	 1220	 1185	 1151	 1043	985.6	919.8	868.2	832.3	672.2	482.9	383.7	304.1	232.0	182.0	139.1	156.9	738.6	9999.9	9999.9	9999.9	 1554	87.28	56.11
435.0	300.8	485.0	646.4	804.5	882.1	914.8	994.4	 1077	 1131	 1210	 1197	 1285	 1291	 1363	 1445	 1462	 1488	 1322	 1328	 1256	 1252	 1273	 1318	 1306	 1285	 1287	 1295	 1244	 1240	 1154	 1103	 1065	 1021	933.3	880.7	806.7	746.8	554.4	435.9	338.0	269.9	212.8	167.4	129.4	152.9	736.2	9999.9	9999.9	9999.9	 1538	82.78
440.0	354.2	413.6	613.2	648.4	828.1	 1003	937.4	 1068	 1040	 1091	 1159	 1180	 1306	 1369	 1472	 1457	 1403	 1397	 1327	 1241	 1213	 1213	 1258	 1253	 1263	 1244	 1215	 1223	 1175	 1132	 1102	 1053	 1015	949.0	880.0	792.4	723.8	647.1	480.2	367.1	304.0	231.6	188.7	147.3	124.7	141.9	736.7	9999.9	9999.9	9999.9	 1350
445.0	395.9	387.6	510.5	598.0	731.9	826.1	956.3	 1018	 1028	 1119	 1094	 1164	 1305	 1371	 1463	 1399	 1401	 1342	 1267	 1208	 1156	 1191	 1207	 1186	 1217	 1199	 1203	 1164	 1114	 1096	 1062	 1054	 1007	989.3	878.2	779.9	695.7	654.3	542.2	424.3	328.6	263.1	210.9	172.7	146.7	115.3	143.7	726.1	9999.9	9999.9	9999.9
450.0	359.7	458.5	535.3	606.4	696.9	782.0	864.8	908.6	997.4	 1056	 1079	 1139	 1254	 1261	 1358	 1404	 1310	 1289	 1161	 1123	 1106	 1110	 1151	 1124	 1138	 1095	 1128	 1111	 1099	 1087	 1036	 1006	975.7	932.5	868.5	789.9	692.9	615.9	570.6	469.3	345.4	277.6	235.6	188.3	157.7	133.2	110.7	142.8	723.5	9999.9	9999.9
455.0	334.6	475.4	460.4	610.5	777.9	793.0	886.7	870.2	905.3	934.7	 1038	 1056	 1155	 1262	 1341	 1277	 1278	 1231	 1140	 1083	 1013	 1033	 1042	 1022	 1077	 1039	 1020	 1033	 1037	995.8	981.9	962.5	931.5	891.9	838.2	774.7	697.4	597.3	520.1	483.1	388.1	295.8	247.1	202.0	174.0	147.2	117.8	98.13	132.2	722.9	9999.9
460.0	308.4	427.0	477.8	518.3	661.0	721.5	781.8	761.7	884.0	 1013	959.5	 1035	 1138	 1208	 1228	 1256	 1220	 1171	 1054	 1021	976.3	962.9	975.9	952.5	946.5	 1004	956.6	975.3	963.5	946.1	935.3	907.5	894.3	866.1	827.7	760.2	665.5	603.9	500.4	485.2	425.5	332.0	260.2	220.8	185.7	164.2	130.1	111.9	93.71	121.2	706.9
465.0	317.1	343.0	441.8	588.9	581.8	642.8	757.9	708.4	794.1	867.9	902.4	967.3	 1051	 1063	 1146	 1219	 1179	 1139	 1013	928.3	905.5	893.2	865.6	884.7	919.0	894.1	895.6	882.5	893.4	879.0	871.7	838.2	851.0	833.5	788.6	709.7	654.6	564.4	491.7	424.2	429.7	368.8	278.2	245.8	203.6	174.8	144.8	125.1	101.1	80.88	111.5
470.0	333.2	303.8	338.6	462.1	691.9	695.7	680.6	700.7	745.9	817.2	862.5	837.0	955.5	 1009	 1116	 1095	 1015	967.4	925.9	858.5	851.7	796.7	816.4	834.3	836.5	808.0	802.9	827.9	814.8	781.3	767.1	787.6	782.8	790.2	740.1	683.3	615.0	552.4	486.5	426.3	378.2	371.0	319.6	255.6	204.2	184.5	149.8	130.4	109.4	87.77	78.46
475.0	267.4	291.5	396.9	422.6	588.7	603.9	615.3	648.6	700.6	717.4	795.3	828.5	819.8	924.9	 1013	973.9	 1006	931.6	848.4	781.5	752.0	754.8	759.1	744.3	750.0	752.4	723.7	731.5	753.2	754.1	714.2	708.4	723.3	706.1	680.3	642.5	586.6	535.2	469.8	416.5	357.6	338.7	329.0	268.6	213.7	185.6	152.1	137.3	114.7	92.83	77.83
480.0	295.5	296.1	320.8	407.6	509.3	503.9	578.7	682.7	638.7	649.9	772.0	773.0	845.9	861.5	908.8	973.8	971.0	864.1	785.4	734.7	715.0	679.4	683.7	680.0	703.7	680.9	681.8	685.8	704.5	694.2	665.0	670.0	673.1	664.8	635.4	600.4	539.9	496.6	444.7	393.3	351.6	317.9	303.2	282.3	230.0	193.2	163.9	142.0	121.5	104.3	84.61
485.0	218.6	271.7	269.2	418.0	436.5	469.8	527.1	579.1	596.8	615.6	652.5	691.8	753.2	821.2	867.2	934.0	866.8	849.3	743.2	693.0	673.5	678.1	664.3	660.9	651.9	627.5	626.3	630.8	625.6	622.5	609.8	617.7	631.4	625.8	602.3	558.6	525.3	476.9	423.7	376.5	349.1	322.4	282.5	275.8	250.5	208.7	165.9	147.5	122.0	118.8	91.01
490.0	229.6	175.1	336.1	444.4	416.5	484.0	586.3	461.5	659.6	572.9	633.0	636.8	676.8	730.2	798.3	793.5	827.2	781.4	713.0	663.0	624.3	598.4	584.2	589.3	580.1	568.3	571.7	565.5	583.2	579.0	560.1	591.0	571.0	592.1	553.0	524.2	491.9	458.6	408.2	361.9	333.3	307.7	272.7	250.4	246.7	220.8	180.9	151.0	131.6	115.6	104.9
495.0	201.8	271.5	340.9	266.0	442.1	378.4	447.9	481.1	511.5	531.9	587.0	626.4	675.7	715.9	795.7	740.0	741.6	723.4	646.1	592.4	584.4	568.0	533.0	549.7	522.1	520.0	521.4	519.5	538.0	547.0	531.8	543.5	548.1	542.7	536.9	502.7	475.3	426.5	397.0	352.3	321.0	285.9	269.4	238.6	239.7	223.3	192.0	158.6	135.2	121.4	102.7
500.0	167.0	150.3	258.9	257.5	299.3	327.0	501.4	416.9	495.5	523.5	517.2	566.1	590.9	627.7	707.9	687.9	702.8	639.7	613.5	574.8	534.2	517.4	512.6	487.4	488.2	498.7	491.2	481.7	480.7	481.0	490.5	489.3	498.3	477.5	471.3	464.7	426.5	400.4	371.5	349.1	304.4	278.7	258.0	226.0	214.3	206.4	205.1	169.3	139.5	118.1	105.6
505.0	190.4	168.0	214.5	193.9	316.0	340.7	415.3	455.1	411.7	446.9	490.3	529.5	586.6	592.0	662.7	651.6	675.0	624.4	543.1	525.4	459.1	460.1	481.5	444.9	455.8	427.7	457.6	430.4	435.1	438.6	437.4	436.3	456.0	446.3	442.0	435.5	390.5	370.4	342.2	321.1	284.8	269.1	243.2	226.6	198.1	191.1	195.6	180.7	137.4	117.9	105.9
510.0	139.3	209.0	168.1	320.4	266.5	333.3	343.7	356.2	426.9	401.0	419.8	499.3	528.3	563.3	584.7	592.3	610.7	511.4	495.7	458.9	433.3	410.4	413.0	413.6	399.9	389.5	388.8	398.7	397.9	394.7	405.0	405.0	423.2	416.1	409.2	372.9	358.3	346.4	310.6	284.2	273.0	244.6	231.8	214.3	191.3	176.0	171.6	176.1	146.8	121.3	104.8
515.0	107.7	150.0	168.2	153.3	260.9	295.1	275.6	339.6	355.2	369.9	389.8	424.2	468.6	503.9	518.6	536.1	569.1	481.9	439.6	430.7	383.1	372.6	379.5	374.7	373.4	358.2	353.7	353.4	349.8	373.6	351.8	374.0	358.3	361.3	370.5	356.1	331.9	293.4	283.4	269.2	250.2	236.5	214.1	203.5	190.2	177.4	155.0	158.2	153.9	129.0	110.8
520.0	140.4	179.0	155.7	176.3	216.0	229.5	276.0	323.8	356.9	361.4	410.2	399.3	462.8	483.4	462.8	503.1	462.5	464.5	428.9	388.1	358.5	325.8	348.4	342.8	317.9	321.0	346.9	321.2	327.3	323.6	330.9	324.4	321.7	339.9	339.1	309.3	299.5	282.2	269.9	246.0	231.2	224.6	195.4	186.8	173.1	151.4	148.8	137.4	145.5	131.6	101.5
525.0	128.6	142.7	196.1	132.0	234.1	228.1	236.0	250.4	293.2	284.8	331.0	373.7	409.4	418.8	458.8	448.3	415.2	410.1	362.7	324.2	309.8	324.1	311.4	305.2	293.7	293.4	293.7	295.1	285.4	288.8	293.9	300.8	297.3	297.2	294.1	295.4	271.3	255.9	233.0	220.5	215.4	197.1	180.1	176.5	159.6	143.3	137.3	127.5	122.3	127.9	103.2
530.0	149.4	150.8	139.3	172.8	236.9	171.1	226.0	241.6	253.2	257.9	282.7	327.9	312.0	387.5	379.3	436.2	374.6	346.8	321.1	297.2	298.0	288.4	302.5	243.4	253.8	267.5	244.4	253.9	269.1	269.1	250.1	261.4	260.0	259.8	264.1	264.5	259.6	229.9	213.7	206.4	193.0	182.1	173.7	155.1	151.3	147.7	126.9	121.4	102.1	112.8	104.0
535.0	104.6	95.33	130.0	161.1	144.6	192.2	220.4	265.5	233.7	248.2	301.5	288.6	294.8	345.6	393.7	368.8	346.9	315.4	305.6	279.2	267.4	230.6	250.9	238.7	229.7	224.0	213.9	215.9	236.6	233.6	217.6	223.1	242.4	233.3	238.8	237.4	211.8	211.9	192.7	176.1	168.2	170.4	152.1	143.8	131.2	121.0	113.6	107.0	99.39	93.25	102.6
540.0	96.01	92.86	122.6	101.2	161.6	166.2	176.3	211.8	220.6	210.2	227.1	278.0	240.5	293.2	412.9	374.8	332.1	280.7	292.4	249.9	225.2	215.8	210.1	214.8	200.4	206.7	202.6	189.1	200.8	207.8	195.9	204.4	209.2	217.2	215.8	189.0	192.5	189.2	181.3	165.6	158.1	138.0	141.5	130.3	119.2	110.9	101.2	98.34	90.10	85.36	79.45
545.0	121.4	118.8	142.6	111.7	199.0	137.8	179.5	191.8	198.8	227.3	190.5	245.0	260.5	271.6	360.2	484.9	314.4	260.4	248.9	220.8	207.8	216.5	197.4	202.9	180.0	187.6	183.7	172.3	186.7	176.7	178.6	187.1	188.5	190.8	196.7	182.4	175.3	170.1	158.9	149.3	140.5	137.8	117.1	117.8	110.5	104.8	91.80	90.55	85.05	75.49	74.51
550.0	113.0	115.0	107.9	135.7	149.1	161.6	158.9	165.6	198.2	190.1	173.0	199.5	242.1	250.7	303.9	809.8	410.9	235.5	221.8	208.7	192.2	192.6	174.0	179.7	172.3	159.8	162.2	161.8	174.0	160.9	170.8	167.1	169.6	168.2	168.1	166.2	154.7	154.3	138.3	136.0	131.5	120.7	112.8	105.1	102.2	96.56	89.60	84.56	77.83	70.58	66.67
