Sample:	'SLABO1-5-5-320
File name:	2P7.FD3
Run Date:	16:19:55, 08/17/2022
Operator:	Administrator
Comment:	'

Instrument
Model:	F-7000 FL Spectrophotometer
Serial Number:	2354-007
ROM Version:	5J14000 06

Instrument Parameters
Measurement type:	3-D Scan
Data mode:	Fluorescence
EX  Start WL:	200.0 nm
EX  End WL:	450.0 nm
EX Sampling Interval:	5.0 nm
EM  Start WL:	280.0 nm
EM  End WL:	550.0 nm
EM Sampling Interval:	5.0 nm
Scan speed:	12000 nm/min
EX Slit:	5.0 nm
EM Slit:	5.0 nm
PMT Voltage:	700 V
Response:	Auto 
Corrected spectra:	Off
Shutter control:	On
Contour interval:	25.000

Peak integration
Integration method:	Rectangular
Sensitivity:	1
Threshold:	1.000

Peaks
No.	ApexEX/EM(nm)	Height(Data)
1	205.0/335.0	768.0
2	205.0/385.0	915.7
3	205.0/470.0	635.8
4	205.0/495.0	402.8
5	205.0/535.0	216.2
6	210.0/350.0	905.4
7	210.0/400.0	 1036
8	210.0/530.0	217.8
9	215.0/320.0	826.7
10	215.0/355.0	912.0
11	215.0/370.0	965.8
12	215.0/415.0	 1268
13	215.0/485.0	485.9
14	215.0/500.0	371.2
15	220.0/305.0	735.6
16	220.0/325.0	834.2
17	220.0/505.0	375.9
18	220.0/520.0	283.7
19	225.0/340.0	992.5
20	225.0/360.0	967.7
21	225.0/375.0	959.8
22	225.0/425.0	 1393
23	225.0/500.0	439.1
24	230.0/380.0	 1056
25	230.0/420.0	 1443
26	235.0/495.0	454.4
27	240.0/465.0	809.9
28	245.0/375.0	881.3
29	245.0/415.0	 1290
30	250.0/295.0	672.5
31	250.0/410.0	 1292
32	250.0/425.0	 1285
33	255.0/330.0	446.6
34	255.0/420.0	 1302
35	255.0/535.0	239.6
36	260.0/415.0	 1276
37	260.0/435.0	 1241
38	265.0/425.0	 1212
39	275.0/305.0	642.7
40	275.0/385.0	940.9
41	275.0/400.0	981.5
42	280.0/310.0	806.3
43	280.0/345.0	654.5
44	280.0/380.0	929.9
45	280.0/395.0	 1001
46	280.0/410.0	 1017
47	280.0/420.0	 1057
48	285.0/315.0	870.6
49	285.0/400.0	989.2
50	290.0/320.0	789.3
51	295.0/330.0	697.9
52	300.0/335.0	664.3
53	305.0/340.0	649.1
54	310.0/345.0	653.4
55	315.0/350.0	623.7
56	320.0/360.0	688.2
57	325.0/365.0	723.1
58	325.0/420.0	 1068
59	330.0/370.0	723.9
60	330.0/415.0	 1048
61	335.0/380.0	751.3
62	335.0/425.0	 1037
63	340.0/385.0	791.1
64	345.0/390.0	772.2
65	360.0/410.0	786.3
66	405.0/470.0	255.5
67	410.0/305.0	16.20
68	410.0/325.0	21.63
69	430.0/320.0	16.23
70	430.0/350.0	18.71
71	430.0/500.0	125.8
72	435.0/345.0	17.13
73	435.0/510.0	106.7
74	440.0/325.0	14.20
75	440.0/350.0	17.28
76	440.0/515.0	90.66

Data Points
	200.0	205.0	210.0	215.0	220.0	225.0	230.0	235.0	240.0	245.0	250.0	255.0	260.0	265.0	270.0	275.0	280.0	285.0	290.0	295.0	300.0	305.0	310.0	315.0	320.0	325.0	330.0	335.0	340.0	345.0	350.0	355.0	360.0	365.0	370.0	375.0	380.0	385.0	390.0	395.0	400.0	405.0	410.0	415.0	420.0	425.0	430.0	435.0	440.0	445.0	450.0
280.0	99.11	44.46	62.74	44.19	48.01	84.83	70.43	55.54	91.73	138.8	154.0	158.2	140.6	55.03	31.66	 5426	9999.9	9999.9	244.2	58.20	50.09	48.78	43.51	32.62	33.09	26.25	25.99	19.61	24.07	21.03	23.29	16.63	15.52	17.66	17.13	17.53	15.59	13.90	12.62	13.40	9.900	9.336	5.433	5.556	4.994	4.718	5.379	5.453	4.254	4.761	3.310
285.0	275.7	161.3	197.5	143.2	170.1	233.8	228.9	142.8	152.7	323.2	513.6	440.5	363.0	155.6	77.83	411.2	9999.9	9999.9	9999.9	 1798	87.81	72.51	62.29	46.97	43.70	33.12	29.68	26.32	24.71	26.78	21.77	23.76	23.27	19.87	19.34	15.82	15.68	17.08	13.13	12.09	11.38	7.847	7.730	7.582	6.726	6.328	4.861	6.559	5.767	5.089	4.100
290.0	456.6	375.2	281.0	285.1	344.3	457.9	369.4	240.3	263.3	537.4	649.2	621.2	457.5	364.5	185.1	135.8	752.0	9999.9	9999.9	9999.9	 2406	111.2	94.50	73.86	57.98	43.84	35.76	33.49	32.44	29.61	26.65	24.93	20.21	23.32	24.93	19.35	16.24	15.95	14.27	13.49	9.685	9.163	9.135	8.792	8.564	6.383	7.436	7.230	6.025	4.908	4.755
295.0	639.3	483.3	402.5	404.9	539.9	570.0	507.7	373.0	355.3	490.3	672.5	639.5	437.3	401.4	455.7	245.3	207.1	820.9	9999.9	9999.9	9999.9	 2964	142.2	109.3	98.60	67.24	49.83	39.02	37.80	31.37	26.52	30.49	23.78	26.10	24.92	20.93	20.49	19.61	18.67	14.37	14.09	12.66	11.13	10.51	8.368	7.770	8.164	7.442	7.154	7.972	5.648
300.0	649.0	673.5	432.0	563.1	558.6	716.1	552.7	420.5	362.7	544.1	598.4	549.6	401.5	306.7	497.0	534.1	276.4	279.9	920.0	9999.9	9999.9	9999.9	 3207	164.5	125.5	111.5	81.91	61.40	49.27	40.88	33.28	32.83	31.58	28.36	27.68	22.69	19.25	20.98	16.89	16.84	14.60	12.82	12.54	12.57	9.802	8.776	8.731	9.695	7.941	9.358	7.921
305.0	895.6	643.5	600.8	650.9	735.6	726.0	640.2	484.4	339.2	402.7	509.9	467.7	341.2	282.5	366.6	642.7	508.3	285.5	266.2	906.8	9999.9	9999.9	9999.9	 3706	194.4	153.6	125.5	91.73	61.05	50.90	44.01	40.29	36.57	33.21	28.17	26.76	25.12	24.76	19.34	17.04	15.54	14.93	16.20	13.59	11.11	10.58	10.89	8.458	9.523	8.194	9.132
310.0	887.4	801.4	787.8	748.9	671.6	706.2	690.6	490.2	386.3	393.9	434.3	413.0	347.3	344.8	363.4	449.2	806.3	500.3	262.6	260.2	914.5	9999.9	9999.9	9999.9	 3882	217.0	170.6	132.9	104.6	72.70	58.47	48.43	46.22	35.22	30.78	30.72	27.01	21.40	23.15	18.45	16.21	14.86	12.78	13.85	12.74	12.23	12.15	11.62	10.90	8.774	8.836
315.0	842.1	752.4	639.8	785.8	789.5	676.5	653.4	427.1	330.4	326.5	405.4	398.3	329.3	360.0	366.3	408.9	569.2	870.6	404.1	223.8	256.9	946.0	9999.9	9999.9	9999.9	 3425	252.7	197.3	147.0	108.7	78.62	51.67	54.08	48.13	39.90	32.32	32.01	27.91	23.81	22.29	19.57	18.30	14.15	14.82	13.57	13.14	11.73	11.71	11.76	11.30	10.35
320.0	858.3	814.4	751.9	826.7	761.9	781.2	642.4	530.9	418.2	390.9	381.0	337.6	367.1	378.2	410.0	430.0	453.3	625.1	789.3	334.1	228.9	256.9	999.1	9999.9	9999.9	9999.9	 3564	281.9	201.4	152.8	111.4	81.97	59.33	52.55	43.18	37.10	32.38	27.88	26.11	22.93	18.24	19.67	17.35	13.39	14.98	13.60	16.23	12.82	12.65	10.63	9.583
325.0	807.2	731.2	800.4	783.7	834.2	747.6	756.1	555.9	450.2	376.3	391.4	375.5	374.9	401.6	455.3	468.2	489.6	445.8	665.8	682.9	291.0	224.4	277.6	 1004	9999.9	9999.9	9999.9	 3791	310.7	216.6	161.4	135.4	88.60	68.28	54.04	42.32	36.87	33.40	27.43	24.94	24.68	19.29	21.63	18.18	17.11	14.07	14.24	12.62	14.20	9.661	10.20
330.0	689.2	729.5	790.9	793.0	661.3	847.9	711.3	656.4	481.3	446.8	404.2	446.6	394.7	431.2	466.5	481.3	513.2	520.4	490.6	697.9	557.1	248.9	220.8	268.5	971.6	9999.9	9999.9	9999.9	 3800	333.1	226.5	169.8	128.4	88.99	73.31	54.50	43.58	37.02	31.94	25.91	24.81	21.56	18.15	17.44	16.85	15.41	13.19	11.77	12.55	11.58	12.01
335.0	749.0	768.0	726.0	762.7	774.3	902.2	766.9	661.8	482.3	484.1	415.3	401.2	418.0	463.8	480.9	522.9	564.9	597.5	518.1	435.8	664.3	496.1	246.5	238.0	284.5	 1019	9999.9	9999.9	9999.9	 4026	339.5	239.0	187.5	135.7	91.53	67.78	51.87	42.43	34.61	27.32	24.84	23.07	22.84	18.12	14.94	16.43	16.10	15.19	13.86	12.55	12.60
340.0	805.3	735.4	796.7	677.5	875.1	992.5	891.4	677.4	582.0	499.7	452.0	461.8	431.7	482.5	527.2	584.9	630.1	624.2	532.5	451.5	432.7	649.1	397.2	236.8	239.6	301.3	994.9	9999.9	9999.9	9999.9	 4545	355.3	256.3	189.8	132.8	93.57	56.96	53.08	40.39	31.75	26.48	23.45	20.40	21.23	19.36	16.47	16.74	14.34	12.68	17.05	12.22
345.0	974.5	738.7	805.0	752.7	841.8	966.7	873.1	693.4	600.2	581.5	511.6	420.5	420.3	520.0	530.7	632.2	654.5	648.0	575.5	509.9	401.5	478.1	653.4	374.6	271.6	244.8	295.2	998.5	9999.9	9999.9	9999.9	 5095	384.2	258.3	197.6	137.2	85.74	62.52	46.29	39.40	28.87	26.09	24.49	20.13	17.21	16.03	15.21	17.13	13.18	13.49	13.12
350.0	839.1	702.4	905.4	807.2	862.0	883.8	880.2	828.7	688.6	563.7	587.5	511.2	471.2	505.0	578.8	637.5	641.7	690.5	620.2	525.6	474.0	425.1	547.1	623.7	343.9	272.8	264.2	315.7	995.1	9999.9	9999.9	9999.9	 5284	389.6	265.9	192.3	136.0	87.98	62.94	46.83	35.90	28.64	23.58	20.06	17.69	18.32	18.71	15.50	17.28	15.13	14.27
355.0	873.4	781.6	749.0	912.0	756.4	878.4	823.3	798.2	647.6	678.9	581.0	534.1	558.8	571.6	602.9	650.9	697.3	732.8	672.5	599.3	503.1	444.0	435.2	594.6	601.8	352.6	293.3	275.5	339.8	991.6	9999.9	9999.9	9999.9	 5604	389.8	260.8	186.3	126.5	83.96	60.10	42.86	32.57	27.59	24.88	23.21	19.16	17.67	15.17	16.66	14.92	14.76
360.0	948.0	708.7	775.8	850.5	951.8	967.7	845.8	796.9	786.4	733.6	624.1	582.1	558.0	653.9	640.1	699.0	736.0	766.1	735.5	639.1	583.7	526.8	474.1	499.5	688.2	562.5	375.5	310.0	296.9	329.2	998.4	9999.9	9999.9	9999.9	 5392	381.1	260.6	174.7	116.0	75.98	56.97	43.18	33.82	28.18	23.05	18.27	18.59	16.16	15.01	15.28	12.83
365.0	746.4	782.1	760.1	848.5	835.4	933.2	886.7	873.2	756.8	741.3	695.9	676.0	641.4	651.8	682.7	758.8	813.9	799.2	783.5	714.7	641.2	587.3	555.0	507.3	558.5	723.1	535.4	368.4	341.0	307.8	325.8	976.2	9999.9	9999.9	9999.9	 5954	372.8	255.7	160.2	112.8	76.08	53.86	44.23	32.08	26.81	20.20	18.73	18.10	15.47	15.63	14.90
370.0	786.7	727.0	874.2	965.8	954.3	931.9	941.0	835.6	798.2	802.3	729.8	710.9	615.6	701.1	716.8	818.9	823.3	843.1	817.9	733.3	669.2	640.9	591.0	576.2	562.6	618.8	723.9	500.9	386.4	340.9	297.5	323.4	986.8	9999.9	9999.9	9999.9	 5833	364.3	229.3	156.4	101.3	73.54	50.84	41.48	33.19	23.52	19.28	20.24	18.57	16.20	13.55
375.0	877.5	793.2	879.2	743.4	890.5	959.8	917.3	821.7	872.3	881.3	789.7	698.6	692.0	761.9	806.5	822.7	870.1	852.8	836.0	764.8	724.3	684.8	638.8	632.8	609.4	572.1	691.0	727.8	487.2	381.5	327.3	293.3	318.5	980.1	9999.9	9999.9	9999.9	 6327	311.3	219.0	147.2	106.2	68.20	50.72	38.48	28.76	24.25	21.73	17.84	18.24	17.57
380.0	817.8	773.7	792.0	887.4	925.9	874.7	 1056	909.1	879.2	862.6	826.6	782.2	725.0	707.6	845.9	908.7	929.9	877.6	861.7	815.6	761.1	735.5	708.2	671.3	655.1	638.4	640.8	751.3	696.9	445.7	375.0	324.6	286.1	315.6	975.9	9999.9	9999.9	9999.9	 5586	299.6	208.8	131.3	92.11	65.20	44.27	33.66	29.41	20.98	19.48	18.31	16.01
385.0	875.1	915.7	843.0	885.3	929.7	884.5	975.7	 1011	938.8	886.1	788.8	812.1	791.4	830.2	870.6	940.9	906.7	923.7	863.5	867.7	784.0	791.6	731.3	748.7	728.2	681.0	693.8	674.7	791.1	631.4	433.2	379.0	316.6	285.4	302.2	945.6	9999.9	9999.9	9999.9	 5882	276.0	192.8	127.9	86.86	62.78	42.88	35.71	28.79	21.23	18.23	17.27
390.0	772.5	774.8	764.3	966.8	 1009	980.8	 1050	984.6	965.2	920.7	887.1	877.6	878.9	888.3	901.3	925.1	930.6	893.8	876.2	860.9	852.9	824.8	764.7	808.0	784.8	770.7	725.8	695.4	709.6	772.2	598.0	443.8	363.9	324.9	268.2	301.2	924.5	9999.9	9999.9	9999.9	 5520	263.2	182.3	119.4	81.50	58.97	40.79	32.28	26.65	20.82	18.38
395.0	660.4	805.4	967.1	 1008	 1025	 1185	 1095	 1057	 1036	993.0	 1014	969.7	973.5	990.1	945.6	950.1	 1001	957.4	945.0	886.4	897.7	843.3	850.2	830.4	859.1	810.7	806.1	760.2	741.1	753.9	771.6	545.5	435.4	375.2	314.1	269.2	295.9	902.1	9999.9	9999.9	9999.9	 5601	251.1	171.0	106.4	77.80	56.35	42.75	29.24	27.09	20.97
400.0	785.8	867.8	 1036	963.8	 1108	 1138	 1230	 1236	 1083	 1057	 1114	 1054	 1050	 1034	950.9	981.5	971.6	989.2	963.2	902.5	902.1	878.2	904.1	898.8	920.0	907.9	908.5	858.2	802.8	748.4	767.2	733.8	541.8	430.0	359.8	281.0	253.8	260.1	890.2	9999.9	9999.9	9999.9	 4975	234.0	156.6	103.8	75.56	54.61	36.64	31.99	24.46
405.0	687.3	666.8	929.9	941.2	 1278	 1287	 1216	 1197	 1191	 1096	 1175	 1108	 1079	 1022	 1025	954.0	 1007	971.4	966.3	911.1	903.9	938.6	916.3	966.6	985.6	984.9	977.2	924.4	877.2	804.5	789.3	780.4	694.4	501.7	419.8	330.1	268.0	219.8	242.8	846.1	9999.9	9999.9	9999.9	 4443	212.6	148.0	94.83	67.28	46.68	34.39	31.41
410.0	745.6	767.2	903.8	 1059	 1091	 1334	 1294	 1280	 1217	 1119	 1292	 1211	 1189	 1171	 1003	 1003	 1017	999.3	 1000	930.3	913.9	953.6	951.0	973.5	994.1	 1014	 1002	 1005	941.8	875.5	800.4	745.5	786.3	646.2	479.7	389.6	315.0	242.8	203.6	228.1	837.2	9999.9	9999.9	9999.9	 4143	202.9	135.3	85.73	63.26	48.11	32.28
415.0	657.3	845.0	 1045	 1268	 1155	 1372	 1383	 1364	 1245	 1290	 1241	 1268	 1276	 1209	 1080	 1010	983.6	982.4	999.8	944.7	913.8	947.5	949.6	987.5	 1011	 1039	 1048	 1005	989.4	916.8	852.0	778.3	756.8	771.8	556.4	429.2	344.9	268.4	216.5	180.6	208.4	819.4	9999.9	9999.9	9999.9	 4197	190.9	122.6	83.05	63.50	45.15
420.0	659.5	735.9	922.9	 1040	 1135	 1330	 1443	 1370	 1189	 1168	 1175	 1302	 1270	 1132	 1118	 1028	 1057	 1012	968.9	918.1	895.0	926.7	930.8	984.3	 1007	 1068	 1019	 1035	 1004	926.6	874.5	804.1	721.6	723.5	699.0	484.2	367.4	291.5	231.4	185.5	157.9	193.6	811.8	9999.9	9999.9	9999.9	 3689	175.2	115.5	76.29	58.40
425.0	592.5	891.8	773.9	 1074	 1191	 1393	 1391	 1350	 1227	 1240	 1285	 1200	 1171	 1212	 1091	 1026	989.8	948.2	890.9	913.1	890.2	914.0	951.4	968.9	988.0	 1014	 1023	 1037	986.3	957.1	868.3	823.6	755.0	689.2	681.4	574.6	400.6	311.3	244.3	200.4	166.2	143.6	178.0	800.9	9999.9	9999.9	9999.9	 3154	161.7	106.4	73.55
430.0	651.3	648.0	826.4	 1004	 1192	 1266	 1375	 1266	 1203	 1208	 1274	 1217	 1235	 1156	 1073	 1046	991.9	885.0	894.6	835.0	872.2	895.0	925.7	961.2	981.1	976.3	 1015	985.4	962.2	931.0	886.3	806.1	752.2	685.4	618.2	617.1	486.8	334.2	252.1	214.7	170.5	142.4	125.4	169.3	772.2	9999.9	9999.9	9999.9	 2876	154.8	100.8
435.0	542.9	648.9	711.9	914.1	 1170	 1239	 1213	 1199	 1136	 1087	 1168	 1159	 1241	 1211	 1089	 1006	987.3	881.3	891.8	832.8	840.6	847.3	856.2	922.9	953.9	965.8	982.0	978.3	949.3	906.4	869.9	797.8	742.4	662.9	603.9	573.6	532.9	392.1	276.0	233.4	183.1	154.6	134.2	114.0	155.0	764.6	9999.9	9999.9	9999.9	 2839	142.4
440.0	475.4	772.5	792.0	914.3	 1140	 1204	 1216	 1075	 1113	 1102	 1091	 1153	 1137	 1097	 1038	 1008	970.2	887.6	834.3	814.9	805.2	811.7	824.0	895.7	879.8	915.4	956.2	916.9	918.0	897.0	837.7	765.2	750.5	685.4	602.4	539.7	512.6	457.4	329.1	234.9	201.2	163.2	145.1	113.3	108.7	150.8	757.7	9999.9	9999.9	9999.9	 2501
445.0	513.8	641.9	762.3	861.9	957.1	 1114	 1095	 1059	958.5	 1040	 1069	 1133	 1093	 1035	 1012	929.9	919.9	840.8	804.7	755.1	761.2	744.4	812.6	799.8	850.1	845.8	864.2	889.7	865.3	830.6	800.0	755.5	722.7	654.3	590.3	538.1	468.5	427.1	390.7	270.7	215.9	178.7	141.9	119.5	99.43	94.43	136.9	770.7	9999.9	9999.9	9999.9
450.0	503.6	633.8	695.9	809.1	893.1	930.0	 1026	 1020	932.8	 1038	 1017	 1008	 1060	 1002	911.3	910.1	844.1	798.0	742.8	712.5	714.4	715.4	778.2	742.5	802.9	821.6	801.3	827.1	774.6	785.8	757.6	727.6	681.9	642.6	570.8	521.3	447.3	387.5	380.7	310.0	214.7	188.6	156.7	127.0	111.3	95.03	92.96	139.4	761.1	9999.9	9999.9
455.0	613.8	444.9	570.2	658.0	775.0	932.3	939.4	900.8	812.8	959.0	936.1	943.3	968.4	962.7	894.9	814.3	832.1	718.7	682.6	700.3	670.4	683.9	684.8	702.1	711.9	740.4	761.9	757.7	724.1	726.3	709.2	648.2	658.3	617.1	561.2	501.8	449.7	380.2	350.0	334.4	260.8	194.0	164.0	130.7	121.0	94.86	87.61	86.47	137.0	756.5	9999.9
460.0	431.9	540.3	557.2	603.7	694.1	862.8	792.6	782.6	731.2	829.3	865.9	936.4	867.1	918.2	835.9	820.3	799.2	702.6	651.6	615.9	634.1	615.7	641.2	638.6	662.8	686.7	692.7	689.7	690.9	675.6	659.8	626.9	610.3	575.6	553.9	477.4	421.9	364.6	318.4	302.9	286.5	213.4	168.5	144.3	114.9	106.4	98.17	84.05	83.84	133.3	742.7
465.0	502.4	523.7	488.4	618.7	711.5	784.2	836.4	787.5	809.9	787.7	828.3	836.8	793.5	777.7	787.3	773.9	717.6	693.3	616.0	595.9	563.2	566.5	591.7	585.8	609.5	621.5	631.5	630.1	618.4	610.2	612.4	578.5	560.6	543.4	506.9	459.9	401.1	345.0	313.4	270.2	273.1	245.7	182.0	146.1	130.8	116.9	100.3	92.25	79.96	84.14	128.0
470.0	533.9	635.8	510.5	614.3	697.5	710.7	685.0	672.2	648.1	724.6	782.4	760.3	789.6	773.8	730.8	715.0	656.8	625.5	539.8	545.1	540.6	540.6	523.9	550.3	550.9	570.4	562.1	571.5	571.4	554.2	545.5	530.4	515.3	486.1	461.4	421.9	384.0	345.2	293.1	261.5	240.8	255.5	204.0	158.4	132.1	119.2	98.35	91.04	76.66	73.97	72.35
475.0	404.9	457.1	450.8	602.0	588.7	627.9	619.7	611.9	620.7	605.7	658.1	659.4	671.4	713.9	664.7	601.4	610.4	537.7	505.0	490.0	472.5	496.4	479.6	467.4	496.6	493.5	497.7	523.1	512.2	483.8	486.8	480.4	471.4	458.5	427.8	403.4	354.2	307.1	272.5	243.0	215.9	210.3	200.9	161.6	131.3	116.8	99.67	90.06	80.96	67.17	65.48
480.0	306.8	343.2	398.2	427.0	461.8	577.2	634.6	547.6	550.8	542.2	573.8	631.9	617.6	686.5	595.1	584.1	602.8	539.7	478.7	465.5	462.8	433.9	437.9	449.9	458.6	450.7	470.3	452.4	465.6	434.2	439.3	429.8	418.6	430.9	397.9	379.7	335.3	294.4	256.1	235.7	213.2	187.4	198.4	184.4	145.9	119.3	100.5	82.76	76.08	68.18	59.70
485.0	297.7	356.2	372.1	485.9	443.4	488.8	533.3	469.3	486.1	562.7	557.2	543.7	594.0	567.5	571.8	571.5	511.3	468.8	420.6	431.2	396.5	406.4	402.4	425.2	410.6	413.8	406.8	428.5	431.3	418.4	425.0	406.7	397.6	398.2	376.4	353.6	302.3	278.7	254.4	228.1	208.7	183.2	166.3	173.4	159.4	127.1	94.29	87.82	77.37	71.02	63.59
490.0	264.2	345.7	338.9	440.3	452.8	448.8	496.7	429.6	414.5	476.6	456.4	535.2	565.1	545.1	513.8	546.0	495.8	451.1	429.2	391.9	385.6	381.2	397.1	365.9	380.8	383.2	395.0	387.8	387.0	382.0	358.2	378.7	359.6	367.3	353.5	322.3	302.6	255.4	240.6	216.2	190.9	173.7	150.5	154.1	158.3	131.4	109.1	82.76	82.25	72.52	64.58
495.0	212.4	402.8	373.6	306.0	342.0	333.3	434.9	454.4	434.4	493.3	449.1	507.1	525.6	476.2	530.0	473.6	447.6	431.4	404.8	370.1	343.9	343.0	366.3	360.2	350.2	358.3	370.0	361.2	367.6	351.2	343.1	334.4	332.2	329.5	315.0	312.5	296.0	247.0	229.0	203.5	189.0	169.3	157.5	130.6	140.2	139.8	115.0	83.18	77.88	69.86	62.54
500.0	257.0	290.0	320.8	371.2	285.4	439.1	367.0	377.6	396.6	388.0	420.5	391.3	446.3	469.1	455.1	420.7	425.1	393.9	334.8	336.7	321.7	318.7	326.3	316.3	316.9	326.2	319.1	323.4	312.5	331.2	325.1	310.3	309.3	306.5	294.7	283.7	255.9	229.8	214.0	193.2	168.2	151.9	144.5	134.8	116.7	118.4	125.8	91.01	76.23	72.80	62.73
505.0	375.5	186.1	300.9	265.4	375.9	353.6	373.7	364.9	337.8	334.0	356.3	383.7	415.7	455.3	402.8	393.8	395.9	381.2	345.3	304.5	284.1	287.2	280.5	299.6	280.0	293.4	297.6	291.7	294.0	284.7	282.6	280.8	279.9	278.3	269.5	251.2	221.3	218.5	197.9	178.9	175.2	152.3	132.5	129.3	113.2	104.4	114.5	104.8	81.18	71.12	60.40
510.0	165.2	206.6	218.2	228.9	293.8	288.3	326.3	283.5	297.5	302.3	326.5	363.7	385.7	397.5	392.1	376.3	358.5	337.5	313.8	273.1	258.7	257.7	244.9	258.9	260.5	260.2	259.9	247.1	256.5	256.2	258.8	249.3	251.4	255.8	234.5	237.8	210.5	192.8	180.1	170.4	144.7	130.1	119.6	122.1	108.3	93.88	95.92	106.7	87.27	70.36	62.75
515.0	275.1	167.3	268.8	222.7	204.8	276.0	292.7	215.2	265.4	285.8	312.6	320.6	317.1	358.5	370.9	338.1	329.3	295.8	279.4	255.4	237.9	237.0	231.4	238.1	232.9	216.7	224.5	242.0	221.2	234.0	237.3	224.2	229.0	227.8	222.8	201.7	182.1	172.1	176.4	148.1	136.1	119.7	120.6	111.7	101.5	88.27	85.00	87.00	90.66	74.55	56.83
520.0	258.5	246.3	187.5	242.7	283.7	210.7	259.8	199.9	239.7	237.4	293.1	281.9	276.4	308.6	320.4	297.3	288.0	272.6	261.8	239.6	224.8	205.0	216.0	208.6	212.6	197.1	197.8	214.5	181.2	195.2	205.8	205.2	212.3	194.4	206.5	192.8	171.9	159.2	151.4	132.6	130.1	114.3	115.8	99.77	90.48	78.55	77.64	81.02	79.59	75.60	59.94
525.0	130.3	178.3	195.5	171.0	254.5	191.0	265.0	222.3	219.6	241.4	254.8	216.3	258.3	302.0	264.6	278.0	266.6	256.2	219.1	227.4	215.2	187.5	193.8	190.8	193.1	192.6	180.7	189.0	165.7	190.3	185.1	191.6	177.5	173.1	181.4	168.2	158.8	148.9	130.6	118.9	117.9	98.75	99.05	87.96	86.04	81.49	70.32	73.21	68.43	72.75	68.15
530.0	172.2	156.9	217.8	173.2	208.8	201.6	210.2	203.0	198.4	206.8	201.8	237.2	228.9	249.2	251.6	266.4	221.7	228.2	209.4	194.4	198.5	172.6	171.7	173.2	172.7	171.8	154.8	167.6	162.3	155.4	154.5	164.4	166.1	160.8	158.5	144.8	140.0	125.6	125.3	105.6	101.2	99.42	92.61	80.26	78.02	72.71	68.67	62.51	61.76	63.00	67.87
535.0	90.19	216.2	128.5	140.7	170.5	153.5	161.5	185.7	189.9	178.7	191.8	239.6	192.6	219.6	248.6	223.4	206.8	215.4	182.5	172.9	170.4	162.6	162.3	164.9	167.9	157.0	153.7	145.7	149.0	150.6	142.2	146.1	143.0	141.7	135.0	129.6	125.9	118.3	101.5	97.30	89.12	89.80	80.42	79.74	71.17	64.38	60.59	61.46	51.57	55.04	62.41
540.0	108.9	172.6	147.2	95.80	151.1	163.7	169.4	158.7	155.7	169.1	167.8	175.0	179.8	207.3	350.0	287.9	203.4	196.5	169.0	166.4	150.1	153.8	141.2	144.2	139.2	146.2	137.7	136.8	132.9	130.4	130.3	131.0	122.4	132.1	126.6	118.9	114.5	103.8	92.77	92.33	82.70	80.00	74.32	69.96	64.33	65.17	62.10	54.92	51.84	47.18	50.25
545.0	92.18	133.2	106.9	116.6	105.0	157.9	125.5	170.7	139.2	138.5	137.5	171.1	150.8	168.1	435.2	600.5	253.3	159.7	156.3	145.5	145.0	122.0	132.2	129.3	129.3	122.9	122.1	123.3	121.7	119.4	116.1	113.7	122.8	107.7	108.4	105.0	104.1	91.34	86.21	82.81	73.94	67.59	65.17	60.80	58.29	51.66	53.98	50.91	45.19	44.11	44.70
550.0	218.7	123.9	136.1	169.5	112.4	122.2	134.4	143.6	150.0	136.3	142.8	149.0	142.2	160.2	263.2	 1390	518.8	166.0	151.0	132.4	125.2	130.7	118.7	121.2	123.4	111.1	120.3	104.9	110.5	106.4	105.9	106.5	100.8	107.1	102.3	105.5	90.90	84.24	81.33	77.61	71.56	64.30	60.56	63.88	55.91	50.16	46.72	44.75	45.54	45.50	37.76
