Sample:	'SLABO1-5-5-320
File name:	2P8.FD3
Run Date:	16:54:54, 08/17/2022
Operator:	Administrator
Comment:	'

Instrument
Model:	F-7000 FL Spectrophotometer
Serial Number:	2354-007
ROM Version:	5J14000 06

Instrument Parameters
Measurement type:	3-D Scan
Data mode:	Fluorescence
EX  Start WL:	200.0 nm
EX  End WL:	450.0 nm
EX Sampling Interval:	5.0 nm
EM  Start WL:	280.0 nm
EM  End WL:	550.0 nm
EM Sampling Interval:	5.0 nm
Scan speed:	12000 nm/min
EX Slit:	5.0 nm
EM Slit:	5.0 nm
PMT Voltage:	700 V
Response:	Auto 
Corrected spectra:	Off
Shutter control:	On
Contour interval:	25.000

Peak integration
Integration method:	Rectangular
Sensitivity:	1
Threshold:	1.000

Peaks
No.	ApexEX/EM(nm)	Height(Data)
1	205.0/315.0	534.1
2	205.0/380.0	429.7
3	205.0/390.0	448.3
4	205.0/400.0	443.0
5	205.0/545.0	110.2
6	210.0/310.0	548.3
7	220.0/535.0	155.4
8	225.0/545.0	170.0
9	230.0/335.0	 1156
10	230.0/525.0	332.7
11	235.0/365.0	 1277
12	245.0/395.0	 1341
13	250.0/295.0	605.0
14	250.0/400.0	 1492
15	255.0/305.0	518.5
16	255.0/415.0	 1558
17	270.0/385.0	 1569
18	270.0/405.0	 1631
19	270.0/420.0	 1665
20	270.0/515.0	681.2
21	275.0/305.0	944.2
22	275.0/380.0	 1617
23	275.0/400.0	 1635
24	275.0/410.0	 1672
25	275.0/440.0	 1640
26	280.0/310.0	 1251
27	280.0/375.0	 1597
28	280.0/430.0	 1652
29	285.0/315.0	 1230
30	285.0/340.0	 1409
31	285.0/360.0	 1614
32	285.0/390.0	 1610
33	290.0/325.0	 1162
34	295.0/410.0	 1567
35	300.0/415.0	 1530
36	305.0/340.0	930.6
37	310.0/345.0	855.4
38	310.0/405.0	 1587
39	315.0/355.0	906.1
40	320.0/360.0	995.9
41	320.0/405.0	 1642
42	330.0/415.0	 1665
43	385.0/305.0	5.927
44	400.0/305.0	5.656
45	400.0/315.0	5.936
46	405.0/340.0	7.978
47	410.0/325.0	6.380
48	430.0/360.0	5.668
49	430.0/375.0	7.532

Data Points
	200.0	205.0	210.0	215.0	220.0	225.0	230.0	235.0	240.0	245.0	250.0	255.0	260.0	265.0	270.0	275.0	280.0	285.0	290.0	295.0	300.0	305.0	310.0	315.0	320.0	325.0	330.0	335.0	340.0	345.0	350.0	355.0	360.0	365.0	370.0	375.0	380.0	385.0	390.0	395.0	400.0	405.0	410.0	415.0	420.0	425.0	430.0	435.0	440.0	445.0	450.0
280.0	55.69	24.54	42.70	52.55	19.24	18.73	48.92	29.62	44.20	125.5	192.4	201.0	92.36	49.97	20.52	 1179	 6619	 2421	71.36	12.39	13.76	14.16	9.997	7.694	8.430	7.706	7.807	5.761	6.013	7.259	3.968	5.685	4.905	4.313	4.750	4.594	3.277	3.594	2.791	1.798	2.831	2.188	2.350	1.110	1.993	2.060	1.849	1.351	1.449	1.188	0.780
285.0	84.99	101.0	77.64	74.11	51.91	82.12	93.07	60.65	172.8	314.3	420.8	402.5	310.2	160.3	75.78	131.6	 2748	9999.9	 9145	462.9	21.92	19.64	12.99	10.83	9.175	7.475	8.335	7.426	7.285	7.929	5.933	5.517	5.876	3.645	4.838	4.596	2.373	4.451	3.790	1.936	3.045	2.247	2.304	2.423	2.290	1.811	3.121	1.867	2.338	1.463	1.263
290.0	199.6	212.1	174.2	225.7	223.3	226.8	239.0	133.0	181.4	391.1	583.5	528.7	418.9	388.5	210.0	156.8	302.5	 6401	9999.9	9999.9	618.8	25.99	22.76	16.98	12.87	9.044	7.351	9.707	7.609	6.680	6.893	5.811	6.529	4.925	4.783	3.634	4.451	3.687	3.414	3.356	2.327	2.306	1.920	1.802	1.910	2.198	2.690	2.343	2.207	1.813	2.063
295.0	398.0	276.5	177.1	309.4	310.5	366.3	291.2	246.1	253.9	434.7	605.0	543.2	386.3	466.3	537.5	350.8	303.2	579.9	9999.9	9999.9	9999.9	810.2	32.29	22.16	19.03	14.19	13.13	10.71	11.89	6.141	8.118	5.959	6.137	6.072	4.832	4.700	5.271	4.034	3.764	4.199	2.956	3.906	2.276	3.130	2.338	2.278	2.856	2.948	2.671	1.944	2.595
300.0	491.1	343.3	378.0	319.3	448.1	441.3	472.4	328.3	238.2	423.8	562.2	479.1	398.3	417.2	658.1	746.5	477.4	348.3	817.0	9999.9	9999.9	9999.9	809.8	41.15	29.20	21.66	16.90	15.43	11.54	8.425	9.967	6.829	7.710	6.883	7.184	4.417	5.326	5.668	3.970	3.451	4.642	3.794	3.095	3.392	2.269	3.160	3.132	2.436	3.001	3.354	3.188
305.0	487.1	483.6	413.0	328.2	510.6	506.3	568.1	347.5	305.2	384.5	473.3	518.5	449.2	460.8	539.9	944.2	852.1	515.3	335.3	797.3	9999.9	9999.9	9999.9	913.2	38.43	35.60	26.54	19.12	15.07	12.45	10.56	8.717	8.568	6.617	6.011	5.916	4.005	5.927	3.816	3.605	5.656	3.753	1.764	2.945	2.438	3.573	3.027	2.564	2.708	3.496	3.551
310.0	454.3	444.7	548.3	448.8	401.6	596.6	580.9	447.7	349.8	394.5	435.2	449.7	486.7	567.3	665.9	845.8	 1251	841.2	435.3	275.5	775.2	9999.9	9999.9	9999.9	952.8	49.41	37.83	28.99	20.81	13.91	11.38	9.952	8.251	7.694	8.393	5.509	5.013	4.570	6.143	4.552	4.021	4.844	3.927	4.556	3.977	4.120	3.918	3.591	2.826	3.541	3.932
315.0	472.4	534.1	401.8	362.6	486.9	553.6	629.4	475.9	408.1	394.7	442.5	439.8	531.2	597.5	759.0	936.2	 1078	 1230	682.2	334.0	241.9	782.1	9999.9	9999.9	9999.9	824.1	56.18	37.53	30.70	23.58	14.13	11.86	11.25	8.461	8.216	6.954	6.260	7.107	5.627	4.422	5.936	3.828	3.978	3.650	2.628	4.242	4.122	4.086	2.961	3.574	3.366
320.0	348.8	405.8	406.4	454.1	487.1	643.6	623.9	538.6	412.2	410.9	475.7	503.1	534.3	646.1	849.8	 1017	 1067	 1137	 1111	531.9	262.9	239.1	786.8	9999.9	9999.9	9999.9	816.9	53.67	33.87	30.44	21.30	17.04	15.88	12.01	10.35	7.512	7.532	7.153	5.685	5.708	4.135	5.078	4.012	5.185	2.938	4.341	3.544	3.655	3.627	3.842	4.525
325.0	462.8	479.4	458.4	506.6	601.8	750.9	896.3	816.6	553.4	450.2	507.1	555.6	592.5	752.2	 1024	 1146	 1132	 1138	 1162	951.9	466.2	285.9	236.7	779.6	9999.9	9999.9	9999.9	858.8	56.86	40.70	29.30	26.15	18.26	12.56	10.16	10.76	8.127	6.096	7.176	5.195	4.630	5.525	6.380	4.216	3.674	3.914	4.663	3.764	3.461	5.314	4.496
330.0	410.5	386.9	426.3	364.6	548.1	812.2	 1027	961.0	714.1	529.0	547.3	634.1	651.7	867.2	 1048	 1250	 1288	 1188	 1056	 1076	811.3	411.7	262.5	228.8	777.2	9999.9	9999.9	9999.9	878.1	55.61	48.48	33.76	25.10	18.19	13.51	10.52	6.271	7.854	7.831	5.801	6.015	4.578	5.411	4.452	4.347	3.631	4.948	3.927	3.983	4.626	3.930
335.0	361.8	385.9	377.8	482.5	563.0	914.3	 1156	 1045	814.4	594.4	566.2	622.7	697.5	865.9	 1039	 1254	 1380	 1335	 1137	931.4	 1003	665.8	368.4	256.0	225.9	785.0	9999.9	9999.9	9999.9	902.5	66.92	49.56	36.49	24.26	21.57	12.03	10.82	9.834	8.771	6.799	5.451	5.279	5.313	4.852	4.789	3.972	4.188	4.709	3.981	4.742	5.329
340.0	311.7	362.3	433.2	527.5	627.7	975.6	 1092	 1222	989.4	740.4	613.8	637.7	717.9	874.8	 1142	 1291	 1388	 1409	 1206	963.3	823.3	930.6	565.1	341.0	246.7	241.6	787.0	9999.9	9999.9	9999.9	999.0	68.64	49.62	35.46	28.31	20.10	12.27	10.14	7.870	6.337	7.495	7.978	6.510	4.429	4.940	4.185	4.515	3.663	4.467	5.392	5.671
345.0	318.9	295.6	381.7	432.6	554.5	911.7	 1124	 1209	996.9	842.4	699.3	716.4	801.1	935.7	 1168	 1320	 1415	 1393	 1274	 1057	819.1	789.8	855.4	511.7	349.0	285.2	255.0	795.1	9999.9	9999.9	9999.9	 1091	75.95	48.19	37.18	24.35	19.70	13.71	10.44	6.712	7.776	5.335	5.557	6.296	4.547	3.721	5.261	4.691	4.397	5.292	5.370
350.0	311.9	300.3	306.3	500.5	536.2	910.6	 1207	 1247	 1145	929.7	811.6	829.5	952.3	 1062	 1237	 1333	 1488	 1419	 1350	 1085	958.0	805.9	829.8	819.4	501.4	384.1	323.0	258.6	805.4	9999.9	9999.9	9999.9	 1092	69.82	48.01	34.95	23.62	16.60	11.30	10.37	8.595	7.680	5.752	4.760	4.541	3.814	4.914	5.676	5.254	4.418	5.930
355.0	299.2	345.7	423.9	398.4	641.7	933.5	 1095	 1252	 1172	961.3	901.9	987.4	999.8	 1196	 1302	 1424	 1566	 1487	 1399	 1203	 1057	932.4	809.2	906.1	841.3	532.7	431.7	346.1	296.5	821.1	9999.9	9999.9	9999.9	 1136	70.71	49.95	36.45	20.09	17.50	9.776	8.351	7.364	7.441	5.716	6.709	4.043	4.468	5.175	4.835	3.977	5.051
360.0	287.4	383.9	361.8	416.6	641.5	759.6	 1161	 1273	 1233	 1032	 1031	 1020	 1195	 1263	 1347	 1468	 1589	 1614	 1457	 1316	 1146	 1016	913.1	857.5	995.9	820.5	569.2	461.1	363.1	301.2	825.4	9999.9	9999.9	9999.9	 1058	71.28	47.62	29.80	24.05	16.17	10.61	10.84	7.738	5.496	5.337	4.371	5.668	4.417	5.148	4.223	5.374
365.0	270.3	394.2	438.3	463.7	690.4	797.1	 1111	 1277	 1140	 1085	 1071	 1157	 1149	 1299	 1416	 1491	 1552	 1597	 1448	 1352	 1194	 1140	 1043	958.5	927.3	 1063	808.6	588.1	467.6	352.0	290.5	803.2	9999.9	9999.9	9999.9	 1195	70.70	44.37	32.75	24.05	14.71	12.40	8.669	7.835	6.579	4.600	4.509	5.031	4.480	4.226	5.299
370.0	302.5	322.2	369.5	355.0	572.9	784.8	 1066	 1258	 1236	 1188	 1090	 1185	 1266	 1444	 1520	 1534	 1583	 1589	 1531	 1438	 1304	 1225	 1129	 1087	 1026	 1045	 1116	801.3	590.7	472.3	352.5	269.9	808.0	9999.9	9999.9	9999.9	 1151	67.25	44.37	30.72	22.57	14.61	12.02	8.031	6.165	7.262	5.836	6.225	5.543	6.557	6.009
375.0	326.6	399.2	329.1	465.7	498.7	871.0	949.7	 1222	 1235	 1196	 1197	 1312	 1318	 1435	 1513	 1576	 1597	 1578	 1513	 1424	 1367	 1305	 1252	 1207	 1136	 1137	 1133	 1115	780.3	590.9	459.1	331.5	262.6	792.5	9999.9	9999.9	9999.9	 1220	63.17	44.35	27.03	21.19	15.51	12.28	8.065	6.517	7.532	6.908	5.099	5.922	5.362
380.0	288.8	429.7	385.7	401.5	565.9	802.4	926.9	 1205	 1191	 1218	 1261	 1314	 1383	 1520	 1548	 1617	 1582	 1552	 1520	 1450	 1440	 1398	 1369	 1301	 1270	 1247	 1149	 1187	 1046	739.9	577.3	437.1	329.5	272.6	798.2	9999.9	9999.9	9999.9	 1086	58.26	39.18	26.86	17.72	16.38	8.245	7.747	6.251	5.678	6.256	6.866	5.470
385.0	286.2	289.6	353.3	396.7	542.3	703.4	940.6	 1240	 1296	 1315	 1311	 1368	 1386	 1472	 1569	 1553	 1552	 1604	 1539	 1489	 1479	 1423	 1437	 1374	 1361	 1353	 1268	 1186	 1213	974.2	733.8	548.7	421.4	313.1	265.7	794.3	9999.9	9999.9	9999.9	 1098	57.67	38.26	26.05	19.20	11.18	9.098	8.543	7.116	6.260	5.923	5.425
390.0	313.2	448.3	382.5	460.8	557.7	806.8	909.3	 1197	 1255	 1289	 1353	 1360	 1461	 1494	 1546	 1569	 1550	 1610	 1573	 1525	 1499	 1482	 1528	 1461	 1447	 1410	 1378	 1255	 1223	 1200	927.1	685.7	542.7	438.8	318.3	277.1	790.7	 9585	9999.9	9999.9	 1055	51.34	32.85	26.02	15.92	12.45	9.873	7.818	6.985	6.306	4.613
395.0	252.7	406.1	392.6	457.6	576.6	734.6	980.6	 1035	 1234	 1341	 1297	 1364	 1444	 1503	 1558	 1579	 1599	 1574	 1573	 1529	 1506	 1515	 1567	 1556	 1515	 1496	 1462	 1397	 1273	 1203	 1171	891.9	686.6	552.3	437.8	332.3	269.7	768.0	 9273	9999.9	9999.9	 1065	48.18	33.85	22.16	15.69	12.11	8.836	7.299	6.684	7.501
400.0	210.3	443.0	375.7	493.1	569.1	997.7	 1069	 1189	 1247	 1262	 1492	 1402	 1472	 1542	 1582	 1635	 1594	 1595	 1575	 1540	 1502	 1514	 1565	 1578	 1583	 1585	 1517	 1463	 1362	 1268	 1216	 1125	861.2	676.7	557.7	440.4	312.6	265.0	735.5	 8642	9999.9	9999.9	924.5	45.81	31.35	21.93	14.90	12.78	8.522	8.291	6.259
405.0	240.1	297.0	441.7	452.1	500.6	803.0	 1147	 1182	 1155	 1312	 1432	 1418	 1527	 1553	 1631	 1603	 1624	 1630	 1579	 1524	 1507	 1579	 1587	 1579	 1642	 1622	 1582	 1535	 1493	 1367	 1281	 1234	 1079	848.2	688.8	547.3	404.3	304.9	251.0	695.4	 7641	9999.9	9999.9	831.2	42.72	28.14	19.44	16.76	10.42	9.767	7.577
410.0	274.8	321.9	348.0	424.6	618.3	775.5	928.0	 1126	 1219	 1232	 1460	 1525	 1541	 1573	 1620	 1672	 1638	 1634	 1532	 1567	 1526	 1515	 1575	 1588	 1609	 1646	 1656	 1550	 1547	 1420	 1354	 1246	 1251	 1042	805.5	634.3	509.6	378.5	268.2	241.7	617.8	 7603	9999.9	9999.9	762.5	39.81	24.60	16.01	14.22	11.40	9.317
415.0	241.2	381.3	340.6	323.7	614.4	654.4	916.2	 1061	 1235	 1291	 1515	 1558	 1529	 1622	 1633	 1657	 1644	 1615	 1566	 1506	 1530	 1514	 1576	 1600	 1599	 1657	 1665	 1605	 1585	 1512	 1359	 1304	 1245	 1214	954.6	740.4	596.7	447.5	341.6	242.7	205.1	601.8	 7147	9999.9	9999.9	767.1	39.58	26.01	16.65	14.63	10.93
420.0	286.7	308.3	347.5	395.1	500.4	814.6	979.1	 1087	 1177	 1292	 1327	 1433	 1626	 1627	 1665	 1648	 1628	 1646	 1552	 1464	 1469	 1522	 1531	 1554	 1587	 1619	 1663	 1613	 1617	 1511	 1453	 1354	 1253	 1226	 1139	863.3	687.1	545.2	407.0	310.4	223.8	185.8	561.7	 6802	9999.9	9999.9	671.2	36.30	22.77	17.35	14.76
425.0	214.2	271.9	353.9	488.2	612.4	777.3	970.9	992.5	 1233	 1265	 1417	 1443	 1555	 1616	 1664	 1628	 1626	 1549	 1515	 1434	 1445	 1474	 1524	 1504	 1546	 1603	 1646	 1633	 1609	 1516	 1498	 1410	 1316	 1231	 1188	 1015	770.8	604.5	467.6	366.7	274.3	184.8	171.3	526.7	 6376	9999.9	9999.9	579.4	34.80	20.87	16.31
430.0	235.1	346.2	360.1	388.6	611.4	681.4	869.6	975.4	 1178	 1290	 1348	 1453	 1580	 1602	 1596	 1648	 1652	 1539	 1492	 1417	 1437	 1424	 1473	 1462	 1517	 1580	 1615	 1620	 1588	 1556	 1521	 1426	 1338	 1255	 1191	 1096	876.0	679.7	521.4	418.9	322.7	234.5	172.8	151.3	488.0	 6003	9999.9	9999.9	505.9	35.69	21.85
435.0	258.7	308.8	270.5	339.3	497.1	750.9	851.1	 1020	 1064	 1274	 1394	 1461	 1565	 1559	 1601	 1591	 1556	 1558	 1456	 1391	 1387	 1397	 1392	 1455	 1481	 1509	 1552	 1563	 1584	 1580	 1547	 1451	 1391	 1297	 1176	 1085	981.5	754.2	588.1	466.1	367.5	285.2	207.0	160.5	139.4	454.3	 5821	9999.9	9999.9	519.7	32.24
440.0	234.4	284.5	311.8	365.1	589.0	744.7	902.7	 1024	 1119	 1210	 1335	 1437	 1468	 1597	 1628	 1640	 1593	 1515	 1461	 1360	 1303	 1360	 1345	 1411	 1421	 1441	 1491	 1521	 1550	 1528	 1460	 1443	 1401	 1284	 1214	 1080	984.5	846.1	650.4	510.5	394.3	317.8	250.9	193.9	144.6	136.3	441.9	 5741	9999.9	9999.9	454.2
445.0	202.5	236.1	404.4	492.7	548.9	672.8	810.3	955.0	 1082	 1179	 1320	 1357	 1425	 1586	 1596	 1565	 1532	 1436	 1421	 1259	 1266	 1267	 1313	 1370	 1356	 1381	 1429	 1447	 1498	 1479	 1462	 1410	 1401	 1334	 1207	 1067	957.3	849.2	713.4	552.8	447.0	350.9	279.1	223.3	163.7	129.1	122.8	428.4	 5869	9999.9	9999.9
450.0	177.9	252.2	358.3	333.7	451.4	590.3	765.1	940.8	968.6	 1156	 1179	 1257	 1409	 1549	 1539	 1536	 1436	 1413	 1353	 1246	 1183	 1233	 1254	 1273	 1302	 1356	 1356	 1413	 1409	 1424	 1425	 1374	 1334	 1298	 1199	 1062	936.1	820.5	761.4	607.3	470.5	375.7	310.3	251.4	197.2	157.6	114.8	110.1	437.9	 5440	9999.9
455.0	157.3	249.1	308.5	292.8	426.2	521.1	731.0	848.0	878.0	 1066	 1137	 1338	 1369	 1533	 1501	 1507	 1445	 1336	 1240	 1202	 1169	 1138	 1159	 1205	 1221	 1263	 1276	 1312	 1320	 1308	 1317	 1312	 1276	 1243	 1171	 1051	936.3	790.2	725.6	676.6	525.7	398.3	333.6	275.8	213.2	181.7	137.4	105.9	105.0	399.8	 5474
460.0	238.0	319.3	316.2	358.3	419.1	539.1	705.0	861.4	961.3	 1021	 1177	 1241	 1373	 1377	 1424	 1462	 1355	 1304	 1148	 1124	 1099	 1087	 1103	 1115	 1137	 1178	 1209	 1237	 1223	 1262	 1267	 1229	 1216	 1182	 1114	 1022	908.4	813.0	695.8	630.3	566.7	453.9	348.2	292.7	242.7	195.0	155.0	122.4	104.3	96.32	400.3
465.0	169.6	254.7	310.1	278.5	455.5	561.5	693.8	650.6	874.7	 1015	 1064	 1183	 1247	 1324	 1312	 1374	 1310	 1223	 1123	 1100	 1009	 1019	 1032	 1037	 1074	 1093	 1123	 1164	 1128	 1157	 1193	 1176	 1130	 1130	 1076	 1015	900.5	771.1	688.4	599.7	545.7	497.3	376.6	312.6	265.0	218.1	179.9	141.3	107.4	87.14	91.68
470.0	225.9	217.7	263.1	303.6	438.3	470.0	645.4	623.6	840.6	878.4	 1062	 1084	 1181	 1201	 1212	 1279	 1233	 1109	 1069	 1008	949.8	935.4	947.3	974.5	959.8	984.0	 1029	 1028	 1073	 1063	 1088	 1085	 1082	 1068	997.3	931.3	867.6	765.5	670.2	595.3	523.5	492.0	408.8	336.2	281.0	228.2	190.5	159.1	132.0	96.70	77.03
475.0	190.1	219.9	229.6	278.4	291.0	463.9	542.5	631.1	755.3	772.2	929.1	 1004	 1038	 1178	 1172	 1198	 1098	 1055	995.2	935.0	873.8	879.4	884.6	897.8	913.5	921.3	944.9	927.9	990.2	976.9	984.3	989.4	981.3	977.3	950.7	872.3	782.9	724.3	633.9	565.8	491.2	456.6	430.0	348.0	283.7	244.1	196.0	165.7	139.9	111.5	90.03
480.0	113.7	202.6	239.8	304.7	407.7	382.6	506.4	558.0	697.8	768.0	814.8	889.2	983.0	 1095	 1060	 1069	 1069	984.4	934.7	869.5	824.0	830.8	829.1	837.0	830.1	847.8	874.6	856.9	906.3	918.4	912.5	922.3	899.2	909.5	886.8	835.2	735.9	686.3	623.4	543.0	482.0	433.2	404.8	375.3	304.9	246.4	210.7	178.7	148.6	114.2	103.5
485.0	209.5	167.2	207.6	295.7	270.9	355.1	481.0	503.9	667.5	730.8	792.0	847.9	894.3	993.8	 1081	 1044	 1011	918.2	847.3	847.4	804.6	768.2	758.2	770.4	766.4	753.8	789.2	823.8	850.3	828.7	829.9	852.2	850.9	856.8	833.5	779.2	711.6	651.9	577.7	535.2	473.1	421.1	376.9	370.4	322.3	262.2	223.7	185.3	157.2	139.7	113.2
490.0	239.4	167.3	215.2	183.3	291.8	305.0	407.4	497.1	607.6	653.9	787.0	851.4	836.5	939.2	971.1	 1007	933.8	903.3	834.7	760.0	716.5	695.4	689.4	700.5	726.5	724.4	727.6	729.2	749.9	781.5	769.4	805.7	803.6	794.3	776.9	744.6	686.2	612.7	552.8	518.9	450.3	411.2	362.6	343.6	324.0	285.5	222.1	196.0	159.4	141.9	121.7
495.0	170.0	164.7	160.6	162.5	189.7	347.4	429.1	477.0	568.4	664.3	763.0	777.1	827.7	902.1	935.8	918.7	853.4	817.6	798.6	712.9	664.5	661.1	676.8	659.2	670.4	652.0	683.8	688.6	683.8	717.3	723.5	729.1	730.6	739.2	715.8	694.5	643.7	575.0	531.2	473.7	441.9	403.3	357.9	335.0	308.8	292.8	241.3	203.0	175.4	141.6	125.9
500.0	92.89	148.1	132.0	160.2	225.3	262.8	465.9	441.5	563.3	581.3	639.1	662.8	797.0	786.3	848.8	882.3	844.2	776.5	711.8	682.9	647.8	610.5	593.5	609.7	601.6	613.2	605.1	638.8	655.0	647.9	655.4	664.0	669.7	674.6	661.8	648.5	604.9	542.9	503.5	448.4	418.3	379.9	349.8	316.7	287.9	278.8	255.0	203.3	176.1	153.3	131.1
505.0	163.5	141.2	164.5	166.4	233.6	293.4	308.9	430.4	458.8	570.8	611.2	675.5	740.2	780.4	698.0	802.7	737.7	715.7	673.2	614.8	580.1	573.5	559.3	574.5	530.6	562.4	556.8	549.5	581.3	596.0	615.1	618.4	604.8	622.0	603.2	580.7	552.9	497.1	466.6	427.5	393.3	367.9	331.2	306.4	268.9	250.8	243.6	218.6	175.5	153.1	135.9
510.0	121.7	212.6	125.4	163.9	204.4	304.9	289.2	374.1	407.0	521.7	545.2	600.9	636.4	657.5	663.6	704.8	662.0	664.4	627.4	572.2	530.7	523.2	515.8	506.6	503.0	503.6	516.5	532.1	538.3	524.4	555.2	550.2	561.6	560.2	550.5	514.9	512.5	466.3	413.5	400.7	374.4	340.9	297.1	287.2	266.3	233.9	220.1	216.8	197.9	156.1	132.2
515.0	54.88	152.9	130.4	174.3	216.6	236.3	315.6	341.0	386.1	457.7	545.4	558.7	600.5	605.5	681.2	634.9	599.5	576.7	553.7	494.2	493.3	482.8	466.6	461.2	471.5	455.7	467.7	466.9	478.7	479.6	488.8	500.1	495.9	501.7	508.6	478.1	454.9	420.5	400.8	355.1	328.7	316.3	297.8	274.9	236.7	223.6	203.1	203.6	193.3	154.1	133.7
520.0	142.2	119.4	82.66	109.3	184.0	203.1	260.2	286.6	374.7	354.4	430.1	475.6	551.3	588.3	622.8	610.6	576.5	531.6	482.8	461.9	423.3	439.7	428.6	426.3	410.9	423.1	419.9	422.4	441.2	429.9	447.8	436.6	461.0	451.1	457.6	436.9	419.7	394.4	364.7	333.7	302.7	284.8	273.4	260.6	238.3	206.4	195.8	185.7	178.8	166.0	130.8
525.0	95.51	148.0	104.7	163.5	149.9	200.9	332.7	275.9	315.8	386.0	391.7	436.0	521.8	509.9	549.2	521.3	509.7	478.7	474.4	416.7	406.1	380.1	384.6	385.5	386.1	367.8	372.2	365.8	385.8	388.4	397.0	387.3	414.1	401.9	417.3	411.1	375.4	345.5	324.6	299.3	284.3	261.8	244.5	234.0	218.9	198.3	183.0	169.4	162.5	151.8	147.0
530.0	153.4	84.07	98.08	109.7	117.2	199.5	252.3	225.7	284.0	327.3	385.2	396.4	441.5	467.5	458.1	491.4	501.3	460.6	403.2	361.9	364.2	356.6	346.6	326.5	336.0	329.7	338.6	341.4	348.5	351.6	345.6	351.3	376.2	371.1	372.3	349.2	336.3	306.2	298.3	287.8	258.0	243.0	227.8	214.4	203.0	181.5	175.4	156.1	145.9	134.1	136.4
535.0	89.50	78.84	123.9	119.5	155.4	107.9	190.2	243.8	255.6	300.4	313.0	398.1	361.5	432.6	454.0	474.7	425.3	395.0	365.8	324.4	309.3	304.9	309.7	302.8	305.6	305.7	285.6	298.5	302.4	313.4	312.9	311.3	321.8	323.2	322.1	321.4	300.9	288.3	270.8	254.5	221.3	226.0	201.9	194.9	182.4	167.4	151.6	146.3	134.6	124.1	124.8
540.0	75.14	65.24	75.96	86.66	88.33	127.1	188.5	199.0	227.3	252.4	309.9	314.5	320.8	375.1	441.5	412.9	362.4	356.8	333.7	295.3	305.4	263.1	255.6	269.0	255.8	253.6	268.9	260.5	263.2	257.9	277.6	286.7	287.9	285.3	287.9	283.4	281.0	261.2	238.2	224.4	211.9	199.2	185.8	186.5	161.2	152.5	144.1	136.3	122.5	107.0	109.4
545.0	55.01	110.2	99.07	99.77	101.0	170.0	141.5	130.6	206.6	249.6	261.3	299.5	311.7	328.7	399.9	475.3	347.4	319.5	290.7	271.1	253.9	236.7	238.1	237.0	227.3	228.9	224.6	234.1	249.4	227.5	243.1	242.3	256.9	265.4	259.1	251.5	249.7	223.1	219.0	194.7	183.7	181.1	164.9	160.5	147.9	138.3	129.7	126.1	104.9	106.3	92.45
550.0	77.15	61.80	90.84	79.40	131.9	125.8	130.0	156.1	201.5	187.8	240.4	251.9	286.7	334.8	356.6	569.5	370.8	296.8	288.1	242.0	219.3	220.5	225.3	211.5	209.9	221.8	214.4	217.6	208.9	209.1	202.6	214.4	229.2	240.8	234.1	218.3	222.3	207.2	202.4	181.0	170.6	173.4	158.8	143.4	135.7	125.4	117.3	112.0	103.0	96.20	84.44
