Sample:	'SLABO1-5-5-320
File name:	2P9.FD3
Run Date:	16:41:55, 08/17/2022
Operator:	Administrator
Comment:	'

Instrument
Model:	F-7000 FL Spectrophotometer
Serial Number:	2354-007
ROM Version:	5J14000 06

Instrument Parameters
Measurement type:	3-D Scan
Data mode:	Fluorescence
EX  Start WL:	200.0 nm
EX  End WL:	450.0 nm
EX Sampling Interval:	5.0 nm
EM  Start WL:	280.0 nm
EM  End WL:	550.0 nm
EM Sampling Interval:	5.0 nm
Scan speed:	12000 nm/min
EX Slit:	5.0 nm
EM Slit:	5.0 nm
PMT Voltage:	700 V
Response:	Auto 
Corrected spectra:	Off
Shutter control:	On
Contour interval:	25.000

Peak integration
Integration method:	Rectangular
Sensitivity:	1
Threshold:	1.000

Peaks
No.	ApexEX/EM(nm)	Height(Data)
1	205.0/310.0	428.9
2	205.0/525.0	406.9
3	210.0/315.0	504.7
4	210.0/350.0	607.0
5	210.0/365.0	718.9
6	215.0/330.0	598.9
7	220.0/300.0	391.0
8	220.0/535.0	540.6
9	230.0/305.0	400.6
10	270.0/300.0	437.9
11	275.0/305.0	626.5
12	275.0/425.0	 4267
13	280.0/310.0	808.9
14	285.0/315.0	850.3
15	290.0/320.0	835.9
16	295.0/330.0	860.2
17	320.0/420.0	 4049
18	325.0/415.0	 4031
19	330.0/425.0	 4096
20	375.0/295.0	12.23
21	380.0/300.0	12.11
22	400.0/305.0	9.134
23	410.0/315.0	9.528
24	410.0/330.0	12.18
25	430.0/325.0	7.798
26	435.0/330.0	8.349
27	445.0/300.0	5.218
28	445.0/365.0	10.79

Data Points
	200.0	205.0	210.0	215.0	220.0	225.0	230.0	235.0	240.0	245.0	250.0	255.0	260.0	265.0	270.0	275.0	280.0	285.0	290.0	295.0	300.0	305.0	310.0	315.0	320.0	325.0	330.0	335.0	340.0	345.0	350.0	355.0	360.0	365.0	370.0	375.0	380.0	385.0	390.0	395.0	400.0	405.0	410.0	415.0	420.0	425.0	430.0	435.0	440.0	445.0	450.0
280.0	30.48	49.78	58.79	33.86	24.05	33.27	30.01	7.746	11.73	19.62	33.71	54.66	34.19	16.37	19.47	 1542	 8957	 3174	107.8	17.33	18.57	18.56	15.49	12.77	11.21	13.77	9.470	10.36	11.24	10.29	8.328	11.43	9.067	7.610	9.080	9.832	7.797	8.957	5.261	5.318	5.195	4.229	4.091	4.035	3.207	3.467	3.373	2.872	2.848	2.603	2.118
285.0	93.16	65.88	79.57	59.00	101.7	74.50	60.75	43.84	43.47	53.09	63.61	97.18	115.4	81.50	47.42	131.6	 3849	9999.9	9999.9	648.1	29.07	26.87	23.33	17.78	17.46	14.57	14.67	11.40	10.83	9.878	11.23	10.31	8.410	10.09	8.838	8.089	9.598	7.078	5.722	5.879	5.613	5.267	4.577	3.937	4.269	2.020	3.382	2.082	3.347	2.528	1.931
290.0	245.3	150.3	146.8	160.8	207.9	163.9	113.1	104.7	63.97	96.21	107.6	124.1	122.9	216.8	123.1	90.27	312.7	 8680	9999.9	9999.9	864.0	38.17	35.14	24.91	22.73	13.77	14.01	13.22	15.05	10.51	11.58	11.09	9.444	10.38	9.921	9.401	9.915	6.947	6.834	6.916	4.423	6.056	4.554	5.394	2.514	3.937	3.815	3.251	3.644	2.947	2.784
295.0	314.2	249.4	227.7	185.3	283.4	244.0	260.4	126.5	86.50	105.6	133.1	126.7	129.8	221.5	351.7	190.9	177.9	680.6	9999.9	9999.9	9999.9	 1149	55.38	44.16	38.28	27.59	18.41	17.94	14.22	12.92	15.13	12.19	13.50	10.24	9.048	12.23	10.16	7.132	8.075	6.947	5.530	6.420	5.875	6.122	3.731	4.970	5.089	4.016	3.592	4.243	3.320
300.0	385.3	305.8	274.6	282.0	391.0	366.8	358.0	213.7	140.8	172.6	185.0	198.5	171.3	237.7	437.9	437.5	298.5	244.5	773.2	9999.9	9999.9	9999.9	 1231	62.25	54.00	39.52	32.47	24.38	22.75	19.46	15.00	14.94	11.08	10.94	13.97	10.55	12.11	9.573	7.974	8.172	6.988	8.017	7.073	6.174	5.198	3.591	4.640	4.383	3.786	5.218	4.231
305.0	356.1	357.5	368.9	389.3	320.2	398.9	400.6	282.5	210.7	186.7	206.5	192.8	226.4	272.7	320.3	626.5	540.6	313.7	236.4	771.1	9999.9	9999.9	9999.9	 1466	72.68	55.23	45.66	32.69	29.41	22.63	17.69	17.26	16.14	12.37	13.50	11.96	9.954	9.460	7.907	7.242	9.134	7.738	6.540	6.308	5.205	4.373	5.337	3.692	4.900	4.051	4.430
310.0	381.1	428.9	428.4	371.5	437.1	390.0	371.5	377.2	241.0	199.1	236.3	282.2	292.9	326.8	445.1	526.7	808.9	524.9	297.5	246.8	786.0	9999.9	9999.9	9999.9	 1595	92.28	65.94	54.50	41.61	28.96	21.36	20.93	16.41	13.48	13.17	13.45	12.65	12.18	10.71	9.999	7.316	7.520	7.366	7.095	5.619	6.308	5.842	5.122	6.208	5.399	3.635
315.0	391.9	412.8	504.7	437.8	497.0	431.0	481.8	401.3	294.9	292.4	315.5	340.9	383.8	406.4	473.3	517.4	667.0	850.3	468.9	270.5	225.2	796.8	9999.9	9999.9	9999.9	 1450	99.90	68.72	53.32	36.98	33.62	23.67	20.35	19.81	18.23	14.42	13.67	12.05	10.61	7.634	8.316	7.690	9.528	7.251	5.196	6.042	5.543	5.556	5.384	4.899	5.261
320.0	484.4	368.5	433.7	419.4	507.3	549.4	528.1	448.2	364.5	375.6	411.1	430.7	429.7	474.3	526.4	620.1	684.1	754.8	835.9	413.6	229.6	232.6	802.0	9999.9	9999.9	9999.9	 1518	107.7	83.58	63.68	52.08	30.54	26.63	25.40	18.30	17.30	15.36	13.70	11.27	13.76	10.10	8.418	6.278	8.397	6.205	5.622	6.103	6.813	6.531	4.524	5.731
325.0	475.7	459.7	410.2	425.2	548.4	603.3	624.7	559.6	455.0	379.5	457.4	473.3	476.4	520.6	626.7	674.4	793.1	701.0	832.0	785.0	354.1	246.9	244.9	825.6	9999.9	9999.9	9999.9	 1657	115.4	84.54	64.57	47.25	35.95	28.10	23.58	19.98	16.48	13.49	12.82	13.79	11.08	9.455	10.10	8.256	6.790	6.212	7.798	6.030	6.447	5.902	4.969
330.0	411.4	522.2	396.7	598.9	513.9	604.6	686.6	604.5	503.0	483.5	532.0	527.9	550.4	575.2	705.7	766.7	883.4	798.4	725.0	860.2	654.6	367.3	262.9	260.3	829.6	9999.9	9999.9	9999.9	 1689	122.7	94.53	73.41	56.74	36.66	27.29	24.95	20.73	15.30	12.58	9.873	9.114	9.310	12.18	9.653	7.805	6.807	6.280	8.349	5.898	6.879	6.404
335.0	423.3	449.1	485.8	577.6	563.9	650.1	763.0	674.4	584.8	512.9	549.1	543.1	587.5	667.8	759.2	844.0	945.9	894.8	824.3	792.0	808.6	616.8	394.5	324.7	298.4	877.8	9999.9	9999.9	9999.9	 1791	134.5	97.22	77.28	56.12	41.57	30.01	23.19	18.96	14.90	13.07	12.13	10.32	10.58	9.112	9.150	7.400	6.516	7.307	6.364	6.765	6.950
340.0	421.3	354.5	555.8	597.8	555.9	631.2	780.5	709.1	618.3	581.3	597.7	616.3	661.2	745.2	852.8	954.6	 1006	982.0	950.8	891.7	793.6	882.9	612.0	425.5	367.8	340.1	872.8	9999.9	9999.9	9999.9	 2045	143.0	103.9	79.24	55.52	45.59	30.27	25.94	15.78	14.53	14.02	10.78	11.57	10.42	8.503	6.659	8.144	8.122	6.904	8.416	7.518
345.0	466.5	536.3	530.8	617.9	668.9	729.7	859.9	795.4	675.4	766.0	739.1	743.5	762.5	835.7	845.3	 1066	 1067	 1109	 1081	997.8	852.2	860.1	959.8	663.6	525.9	438.2	366.7	915.2	9999.9	9999.9	9999.9	 2354	148.8	110.2	78.94	63.14	39.14	26.81	26.13	14.50	15.30	12.60	10.99	10.11	9.364	8.060	8.275	7.463	8.001	7.542	6.800
350.0	495.9	415.5	607.0	602.4	600.1	812.8	948.9	842.0	870.3	845.5	829.2	812.1	873.6	938.2	 1050	 1105	 1308	 1285	 1205	 1167	 1001	960.6	 1000	 1054	756.7	612.7	486.3	432.8	947.3	9999.9	9999.9	9999.9	 2435	161.0	117.0	83.98	58.53	38.53	25.80	23.27	15.80	14.24	10.18	11.17	9.971	7.264	7.539	8.460	7.474	7.018	7.636
355.0	568.6	461.9	490.2	682.6	737.8	873.8	 1053	969.2	920.2	947.1	937.4	990.1	 1006	 1067	 1225	 1309	 1486	 1404	 1345	 1322	 1198	 1148	 1128	 1251	 1206	874.6	704.5	579.7	479.8	995.8	9999.9	9999.9	9999.9	 2625	165.8	117.6	79.26	56.19	40.29	27.90	21.46	15.54	14.62	12.33	11.47	9.475	7.875	8.422	7.894	7.522	8.460
360.0	516.3	548.3	603.1	616.7	887.3	962.3	 1042	 1049	 1164	 1115	 1069	 1089	 1220	 1310	 1351	 1462	 1632	 1596	 1556	 1507	 1433	 1363	 1370	 1362	 1455	 1293	996.0	803.2	659.3	557.2	 1031	9999.9	9999.9	9999.9	 2520	161.6	109.4	81.77	52.72	36.45	27.10	22.31	16.93	14.17	11.97	12.00	10.45	8.767	9.745	6.947	7.819
365.0	507.3	670.4	718.9	651.9	974.8	 1065	 1178	 1311	 1227	 1276	 1329	 1384	 1386	 1482	 1604	 1686	 1866	 1784	 1792	 1772	 1683	 1591	 1612	 1603	 1569	 1704	 1355	 1098	921.2	729.6	603.1	 1031	9999.9	9999.9	9999.9	 2802	164.1	115.6	72.93	51.35	35.12	27.40	18.78	14.30	12.08	10.60	12.61	9.344	10.67	10.79	9.467
370.0	566.8	581.5	695.6	862.9	 1032	 1152	 1341	 1317	 1495	 1484	 1472	 1578	 1663	 1718	 1878	 1951	 2088	 1938	 1997	 1954	 1855	 1906	 1926	 1921	 1859	 1871	 1813	 1484	 1197	952.8	752.3	596.0	 1053	9999.9	9999.9	9999.9	 2779	164.5	106.3	70.63	53.55	34.51	25.10	18.51	15.03	13.66	11.83	10.05	10.80	9.677	9.443
375.0	649.6	625.8	649.8	918.8	 1102	 1260	 1570	 1566	 1562	 1621	 1743	 1775	 1873	 1940	 2122	 2197	 2292	 2247	 2173	 2140	 2130	 2196	 2180	 2223	 2180	 2085	 2039	 1955	 1565	 1269	 1010	745.9	625.8	 1077	9999.9	9999.9	9999.9	 2959	154.3	99.15	66.12	48.63	38.65	24.07	17.20	16.10	15.03	11.35	11.70	11.78	10.00
380.0	426.6	604.8	839.6	905.4	 1349	 1447	 1511	 1747	 1821	 1860	 1999	 2035	 2209	 2320	 2344	 2377	 2531	 2454	 2366	 2421	 2370	 2460	 2489	 2483	 2466	 2405	 2240	 2218	 1965	 1610	 1306	 1018	770.6	611.8	 1071	9999.9	9999.9	9999.9	 2727	137.4	93.37	65.08	46.15	36.15	22.46	17.48	17.77	14.22	12.21	12.17	12.03
385.0	624.4	598.8	942.2	 1031	 1481	 1603	 1821	 1901	 2066	 2225	 2348	 2324	 2483	 2543	 2623	 2750	 2747	 2748	 2582	 2637	 2637	 2713	 2752	 2782	 2780	 2710	 2558	 2367	 2313	 2012	 1626	 1302	 1041	775.6	636.9	 1074	9999.9	9999.9	9999.9	 2803	137.2	86.27	65.15	44.64	29.42	21.95	22.80	14.79	13.30	12.46	10.94
390.0	559.9	776.4	887.1	 1323	 1369	 1561	 2000	 2162	 2254	 2517	 2404	 2629	 2678	 2824	 2828	 2923	 2977	 2928	 2865	 2883	 2860	 2975	 3004	 3056	 3097	 3009	 2866	 2699	 2554	 2417	 2004	 1661	 1327	 1046	795.1	616.2	 1055	9999.9	9999.9	9999.9	 2694	133.3	83.81	60.58	42.93	30.13	26.42	18.36	15.27	13.37	13.99
395.0	571.8	956.8	 1068	 1223	 1721	 1826	 2215	 2243	 2530	 2674	 2767	 2856	 2933	 2948	 3086	 3207	 3300	 3116	 3074	 3033	 3067	 3183	 3341	 3350	 3320	 3280	 3152	 3018	 2790	 2601	 2454	 1978	 1660	 1354	 1056	790.9	612.0	 1022	9999.9	9999.9	9999.9	 2723	126.1	82.32	55.92	40.10	30.84	23.94	18.82	17.33	15.12
400.0	591.7	975.1	958.8	 1267	 1711	 2101	 2408	 2595	 2727	 3019	 3009	 3022	 3165	 3306	 3304	 3447	 3440	 3272	 3207	 3236	 3287	 3408	 3530	 3560	 3546	 3535	 3384	 3297	 3090	 2841	 2665	 2424	 2003	 1651	 1328	 1010	754.0	581.4	 1018	9999.9	9999.9	9999.9	 2395	114.1	76.12	52.65	40.20	26.64	23.48	18.59	17.84
405.0	673.5	986.3	 1216	 1370	 1788	 2296	 2484	 2631	 2974	 3025	 3148	 3229	 3344	 3485	 3598	 3650	 3630	 3402	 3341	 3404	 3416	 3497	 3658	 3796	 3769	 3716	 3646	 3526	 3369	 3136	 2849	 2648	 2403	 1963	 1611	 1255	936.5	705.1	533.2	978.2	9999.9	9999.9	9999.9	 2156	107.5	70.53	54.91	37.60	27.12	23.57	19.31
410.0	850.7	851.1	 1224	 1478	 1846	 2311	 2534	 2839	 3058	 3220	 3373	 3415	 3496	 3700	 3770	 3778	 3777	 3677	 3534	 3472	 3431	 3674	 3718	 3821	 3924	 3906	 3880	 3764	 3577	 3377	 3057	 2895	 2710	 2311	 1941	 1550	 1191	892.6	643.3	490.2	943.5	9999.9	9999.9	9999.9	 2012	107.1	73.17	48.19	36.72	31.18	22.78
415.0	697.6	969.2	 1447	 1577	 1918	 2230	 2594	 2990	 3073	 3384	 3433	 3577	 3781	 3853	 3923	 3960	 3807	 3682	 3604	 3567	 3527	 3671	 3780	 3913	 3945	 4031	 3969	 3860	 3762	 3595	 3317	 3098	 2861	 2642	 2221	 1776	 1390	 1098	809.6	583.6	455.0	926.2	9999.9	9999.9	9999.9	 2063	103.6	66.48	45.82	37.42	29.54
420.0	729.4	822.0	960.1	 1618	 1991	 2495	 2710	 2826	 3078	 3341	 3524	 3799	 3791	 3884	 4049	 4044	 4074	 3758	 3657	 3544	 3608	 3714	 3788	 3931	 4049	 3995	 3979	 3947	 3820	 3689	 3462	 3285	 3024	 2841	 2519	 2061	 1635	 1275	957.7	706.2	519.2	422.2	896.1	9999.9	9999.9	9999.9	 1863	101.0	60.96	45.58	33.95
425.0	750.2	854.7	 1388	 1515	 2121	 2285	 2590	 2906	 3271	 3335	 3494	 3665	 3892	 3952	 4098	 4267	 4086	 3821	 3670	 3573	 3514	 3669	 3755	 3947	 4014	 4040	 4096	 4051	 3894	 3827	 3600	 3372	 3178	 2928	 2701	 2319	 1849	 1451	 1105	839.2	651.9	477.1	388.6	882.7	9999.9	9999.9	9999.9	 1550	91.84	60.09	42.49
430.0	777.7	 1047	 1288	 1519	 2045	 2388	 2558	 2834	 2959	 3417	 3530	 3695	 3823	 4058	 4161	 4206	 4069	 3886	 3723	 3509	 3528	 3637	 3717	 3900	 3930	 3994	 4051	 4026	 3930	 3795	 3633	 3491	 3276	 3068	 2758	 2458	 2062	 1611	 1285	 1008	774.7	583.7	432.6	373.2	871.4	9999.9	9999.9	9999.9	 1409	86.57	61.02
435.0	692.4	983.6	 1416	 1468	 1831	 2441	 2677	 2898	 3076	 3316	 3378	 3617	 3906	 4147	 4131	 4189	 4061	 3800	 3672	 3527	 3526	 3553	 3677	 3787	 3888	 3936	 3971	 4008	 3949	 3848	 3714	 3501	 3380	 3128	 2883	 2517	 2230	 1822	 1400	 1133	892.0	673.0	512.4	404.4	356.9	863.7	9999.9	9999.9	9999.9	 1407	81.01
440.0	661.9	969.0	 1254	 1584	 2003	 2299	 2399	 2903	 3057	 3236	 3526	 3649	 3964	 4034	 4127	 4190	 4025	 3914	 3695	 3482	 3449	 3494	 3577	 3733	 3757	 3842	 3935	 3935	 3920	 3799	 3699	 3535	 3427	 3230	 2955	 2594	 2306	 1975	 1581	 1276	 1009	788.0	619.9	483.3	381.9	333.5	866.9	9999.9	9999.9	9999.9	 1260
445.0	610.0	913.3	 1227	 1462	 1724	 2318	 2436	 2750	 3017	 3174	 3475	 3540	 3736	 3967	 4164	 4184	 4095	 3756	 3555	 3343	 3315	 3361	 3452	 3504	 3720	 3760	 3771	 3828	 3802	 3792	 3659	 3528	 3352	 3256	 2996	 2645	 2329	 2044	 1715	 1359	 1104	903.8	705.4	549.2	449.9	349.3	324.2	841.9	9999.9	9999.9	9999.9
450.0	708.2	832.3	 1153	 1366	 1736	 1931	 2288	 2571	 2779	 2970	 3281	 3333	 3640	 4017	 4099	 4016	 3958	 3805	 3373	 3301	 3157	 3168	 3297	 3384	 3521	 3593	 3685	 3697	 3622	 3628	 3551	 3407	 3332	 3164	 2947	 2659	 2343	 2004	 1792	 1466	 1183	985.4	800.9	640.7	519.0	413.1	323.8	310.8	827.2	9999.9	9999.9
455.0	582.2	760.7	 1006	 1312	 1452	 1920	 2353	 2523	 2783	 2822	 3199	 3258	 3449	 3674	 3903	 3923	 3730	 3554	 3318	 3196	 3000	 3084	 3136	 3189	 3242	 3377	 3455	 3488	 3477	 3422	 3419	 3264	 3205	 3083	 2883	 2654	 2300	 2023	 1748	 1523	 1279	 1037	850.8	702.6	597.4	469.7	384.2	314.9	286.3	818.3	9999.9
460.0	684.2	799.9	900.9	 1119	 1488	 1921	 2221	 2454	 2648	 2808	 3055	 3105	 3320	 3574	 3777	 3740	 3644	 3360	 3132	 2997	 2862	 2893	 2956	 3005	 3092	 3147	 3237	 3279	 3320	 3248	 3197	 3168	 3028	 2941	 2773	 2558	 2285	 1978	 1756	 1511	 1341	 1086	916.6	753.1	633.9	521.3	443.9	355.3	282.4	271.4	808.5
465.0	649.7	764.2	889.5	 1227	 1610	 1791	 2016	 2247	 2477	 2723	 2836	 2881	 3120	 3340	 3635	 3646	 3477	 3182	 3049	 2821	 2725	 2714	 2752	 2854	 2910	 2947	 2975	 3051	 3088	 3048	 3045	 2967	 2860	 2831	 2624	 2489	 2209	 1943	 1714	 1488	 1326	 1164	964.3	811.5	699.9	569.2	476.5	405.1	324.3	262.3	253.4
470.0	520.7	647.5	952.2	 1197	 1349	 1554	 1985	 2019	 2151	 2432	 2711	 2789	 3182	 3233	 3395	 3417	 3298	 3108	 2865	 2629	 2570	 2547	 2598	 2673	 2667	 2707	 2775	 2812	 2834	 2793	 2800	 2747	 2706	 2627	 2549	 2356	 2113	 1875	 1676	 1461	 1280	 1176	 1009	851.6	724.3	622.9	518.5	432.9	362.6	291.0	243.4
475.0	486.5	679.5	790.6	 1050	 1146	 1593	 1692	 1903	 1976	 2276	 2482	 2590	 2812	 3016	 3170	 3147	 3096	 2873	 2653	 2487	 2348	 2338	 2375	 2377	 2422	 2483	 2542	 2584	 2633	 2609	 2556	 2512	 2500	 2468	 2383	 2209	 2003	 1808	 1599	 1434	 1251	 1118	 1009	853.0	723.4	627.7	530.3	464.6	395.6	322.9	262.0
480.0	535.0	550.2	781.5	858.5	 1191	 1416	 1563	 1762	 1838	 2154	 2257	 2359	 2664	 2761	 2987	 3007	 2948	 2783	 2529	 2330	 2183	 2170	 2207	 2207	 2266	 2321	 2354	 2370	 2388	 2381	 2390	 2359	 2359	 2318	 2216	 2098	 1907	 1716	 1545	 1391	 1227	 1082	985.9	880.6	752.9	648.4	579.4	496.4	424.4	360.7	287.4
485.0	501.3	567.5	693.3	772.3	 1006	 1249	 1510	 1665	 1801	 2014	 2108	 2238	 2517	 2576	 2814	 2865	 2796	 2555	 2377	 2236	 2120	 2109	 1990	 2063	 2123	 2133	 2202	 2194	 2238	 2259	 2216	 2233	 2236	 2152	 2089	 1991	 1824	 1646	 1504	 1335	 1175	 1063	973.9	882.1	793.1	661.9	592.0	515.3	441.5	384.3	329.9
490.0	353.4	585.2	671.5	794.3	928.2	 1181	 1323	 1474	 1605	 1889	 2046	 2130	 2346	 2510	 2614	 2709	 2610	 2447	 2225	 2111	 1974	 1872	 1920	 1952	 1978	 1989	 2035	 2051	 2067	 2097	 2058	 2071	 2047	 2043	 2001	 1895	 1733	 1581	 1443	 1268	 1184	 1043	951.2	874.9	780.6	696.8	594.0	529.0	456.7	401.5	347.8
495.0	409.8	571.2	696.2	653.8	929.5	 1112	 1256	 1347	 1495	 1696	 1945	 2095	 2218	 2328	 2506	 2514	 2428	 2336	 2146	 2028	 1869	 1821	 1790	 1848	 1836	 1854	 1892	 1888	 1925	 1920	 1890	 1920	 1929	 1941	 1880	 1760	 1630	 1469	 1345	 1246	 1124	 1034	915.7	823.6	760.3	706.9	613.0	543.0	472.4	414.8	356.8
500.0	321.6	521.1	511.6	643.9	922.0	944.7	 1268	 1331	 1475	 1543	 1796	 1854	 2095	 2151	 2303	 2327	 2287	 2169	 1997	 1826	 1770	 1683	 1668	 1664	 1679	 1684	 1746	 1745	 1748	 1784	 1758	 1738	 1760	 1767	 1719	 1660	 1543	 1417	 1276	 1178	 1057	985.1	876.2	811.1	741.7	692.0	624.4	553.2	485.0	423.4	370.0
505.0	329.9	462.9	567.5	466.0	731.9	925.4	 1023	 1251	 1374	 1436	 1540	 1684	 1903	 1977	 2162	 2207	 2172	 1993	 1873	 1674	 1628	 1533	 1506	 1523	 1522	 1526	 1548	 1605	 1616	 1584	 1589	 1613	 1636	 1624	 1597	 1528	 1408	 1312	 1193	 1105	 1002	928.2	843.9	787.2	712.9	654.1	606.4	558.0	489.5	420.9	371.2
510.0	390.9	342.3	433.1	494.3	624.6	900.3	886.3	 1088	 1144	 1343	 1464	 1584	 1634	 1839	 1969	 1988	 1981	 1843	 1719	 1589	 1471	 1414	 1385	 1376	 1404	 1394	 1393	 1451	 1442	 1461	 1448	 1467	 1463	 1509	 1466	 1416	 1286	 1191	 1093	 1046	969.9	849.4	800.4	722.2	663.0	619.3	575.2	530.5	478.9	421.7	366.1
515.0	227.0	400.4	397.0	483.1	635.0	685.6	842.3	994.5	 1081	 1187	 1282	 1393	 1528	 1724	 1776	 1775	 1812	 1709	 1570	 1400	 1366	 1301	 1270	 1280	 1236	 1272	 1260	 1315	 1319	 1328	 1319	 1329	 1325	 1350	 1336	 1270	 1193	 1116	 1014	939.7	888.2	810.7	738.0	691.4	626.3	575.3	545.6	504.5	469.4	413.6	365.8
520.0	308.9	316.5	381.9	500.9	494.0	625.0	829.2	950.6	994.5	 1066	 1178	 1348	 1447	 1531	 1608	 1600	 1658	 1535	 1391	 1311	 1250	 1202	 1184	 1127	 1134	 1115	 1160	 1171	 1184	 1174	 1195	 1185	 1225	 1213	 1178	 1159	 1099	 1017	924.2	856.9	796.2	734.3	697.7	640.3	595.5	540.3	513.0	471.5	447.6	410.9	362.5
525.0	241.8	406.9	353.6	422.5	518.8	645.8	720.9	853.0	911.2	 1056	 1035	 1141	 1339	 1383	 1468	 1515	 1503	 1371	 1323	 1221	 1120	 1071	 1039	 1007	 1047	 1048	 1032	 1052	 1076	 1050	 1055	 1068	 1081	 1071	 1084	 1043	976.1	919.7	856.7	805.4	733.1	693.0	632.3	591.4	547.1	508.1	472.1	445.0	405.2	391.4	360.8
530.0	166.5	205.8	262.9	382.6	437.4	600.4	679.2	716.2	804.3	870.2	965.7	 1071	 1155	 1195	 1367	 1392	 1386	 1284	 1161	 1042	 1068	978.6	930.7	942.6	920.0	949.2	922.5	954.5	945.2	947.7	971.9	954.6	970.9	974.3	989.0	934.8	903.4	826.1	776.1	723.0	671.9	624.8	582.6	551.5	507.1	471.8	445.7	416.7	376.9	359.8	336.2
535.0	167.6	249.8	319.8	379.6	540.6	458.4	595.6	652.0	728.5	739.8	868.2	934.4	 1073	 1164	 1199	 1268	 1214	 1116	 1040	988.2	943.9	858.5	863.9	834.5	844.6	816.0	833.3	822.5	825.9	849.5	856.6	865.2	881.4	874.2	848.1	839.2	806.1	738.0	688.6	642.0	614.9	573.6	539.1	503.0	463.5	439.8	412.8	381.8	352.3	338.6	313.1
540.0	222.5	262.2	267.1	291.9	404.1	450.7	476.8	610.4	640.6	759.2	773.3	828.7	884.6	980.4	 1111	 1142	 1103	 1012	953.9	905.3	825.4	780.5	745.9	725.3	732.3	731.1	738.0	744.0	739.6	790.2	773.7	766.8	773.8	791.0	771.6	759.4	722.6	670.4	634.6	584.5	545.1	519.7	476.8	450.4	430.6	398.8	374.4	353.2	330.1	310.4	284.6
545.0	240.3	215.9	223.3	249.1	331.5	391.6	519.8	537.9	588.4	658.0	709.5	722.8	841.9	858.9	 1024	 1100	990.4	920.9	859.2	765.1	720.2	730.0	674.1	673.5	663.7	651.8	658.5	658.4	674.3	668.0	664.8	691.9	670.0	697.9	709.3	661.8	630.0	596.5	559.3	524.7	492.4	459.5	440.6	425.4	385.3	362.3	346.2	316.5	299.0	280.6	259.5
550.0	190.5	192.4	164.3	204.9	303.0	398.0	407.4	531.1	484.7	657.6	614.6	693.1	734.0	783.9	878.3	 1244	 1005	839.9	779.1	702.3	695.8	653.6	631.6	604.2	580.0	603.0	596.0	600.8	603.4	596.0	609.9	623.9	594.2	628.9	632.4	625.3	572.8	539.4	501.5	468.0	456.2	429.8	406.2	377.0	355.6	334.1	311.6	303.2	277.0	262.6	244.1
