Sample:	'SLABO1-5-5-320
File name:	3H1.FD3
Run Date:	16:46:38, 08/24/2022
Operator:	Administrator
Comment:	'

Instrument
Model:	F-7000 FL Spectrophotometer
Serial Number:	2354-007
ROM Version:	5J14000 06

Instrument Parameters
Measurement type:	3-D Scan
Data mode:	Fluorescence
EX  Start WL:	200.0 nm
EX  End WL:	450.0 nm
EX Sampling Interval:	5.0 nm
EM  Start WL:	280.0 nm
EM  End WL:	550.0 nm
EM Sampling Interval:	5.0 nm
Scan speed:	12000 nm/min
EX Slit:	5.0 nm
EM Slit:	5.0 nm
PMT Voltage:	700 V
Response:	Auto 
Corrected spectra:	Off
Shutter control:	On
Contour interval:	25.000

Peak integration
Integration method:	Rectangular
Sensitivity:	1
Threshold:	1.000

Peaks
No.	ApexEX/EM(nm)	Height(Data)
1	205.0/430.0	484.2
2	205.0/475.0	304.8
3	205.0/505.0	210.4
4	210.0/460.0	484.5
5	210.0/525.0	176.0
6	210.0/545.0	129.8
7	215.0/405.0	599.4
8	215.0/470.0	432.1
9	215.0/510.0	239.7
10	220.0/300.0	978.0
11	220.0/480.0	446.8
12	220.0/525.0	222.4
13	225.0/320.0	621.1
14	225.0/355.0	518.7
15	230.0/330.0	644.8
16	230.0/345.0	631.4
17	230.0/365.0	611.2
18	230.0/440.0	781.2
19	240.0/375.0	677.6
20	245.0/420.0	952.2
21	245.0/525.0	307.9
22	245.0/535.0	244.7
23	250.0/395.0	839.2
24	250.0/410.0	927.7
25	255.0/295.0	229.8
26	265.0/435.0	 1055
27	270.0/425.0	 1043
28	270.0/440.0	 1081
29	275.0/305.0	716.8
30	275.0/330.0	428.5
31	275.0/435.0	 1052
32	275.0/445.0	 1055
33	280.0/310.0	838.1
34	280.0/340.0	427.3
35	280.0/410.0	942.9
36	285.0/315.0	789.9
37	290.0/320.0	711.2
38	295.0/330.0	630.3
39	300.0/335.0	617.6
40	305.0/340.0	585.1
41	310.0/345.0	549.2
42	310.0/425.0	764.9
43	315.0/350.0	552.4
44	315.0/410.0	778.4
45	315.0/420.0	784.5
46	320.0/360.0	593.8
47	325.0/365.0	631.6
48	330.0/370.0	650.4
49	330.0/410.0	793.6
50	330.0/425.0	771.1
51	335.0/380.0	640.5
52	335.0/415.0	773.3
53	340.0/385.0	681.9
54	340.0/420.0	763.7
55	345.0/390.0	681.6
56	350.0/395.0	664.4
57	355.0/405.0	668.8
58	360.0/410.0	665.0
59	365.0/415.0	676.6
60	370.0/315.0	7.864
61	370.0/425.0	620.0
62	375.0/310.0	4.931
63	385.0/315.0	5.681
64	400.0/300.0	6.729
65	405.0/310.0	5.143
66	405.0/470.0	277.3
67	420.0/310.0	3.955
68	420.0/490.0	187.2
69	430.0/330.0	4.972
70	430.0/500.0	146.1
71	435.0/315.0	4.566
72	435.0/350.0	3.967
73	445.0/305.0	5.308
74	445.0/350.0	4.295
75	445.0/520.0	98.48

Data Points
	200.0	205.0	210.0	215.0	220.0	225.0	230.0	235.0	240.0	245.0	250.0	255.0	260.0	265.0	270.0	275.0	280.0	285.0	290.0	295.0	300.0	305.0	310.0	315.0	320.0	325.0	330.0	335.0	340.0	345.0	350.0	355.0	360.0	365.0	370.0	375.0	380.0	385.0	390.0	395.0	400.0	405.0	410.0	415.0	420.0	425.0	430.0	435.0	440.0	445.0	450.0
280.0	133.1	92.01	95.57	118.8	106.0	100.5	47.80	10.75	25.92	37.70	51.56	75.70	47.43	14.76	21.42	724.3	 4631	 2010	68.66	11.86	8.281	8.771	8.334	5.287	3.916	3.225	3.042	3.070	3.945	4.606	2.413	3.101	2.554	3.437	2.967	2.487	2.519	3.303	1.818	1.963	2.643	1.690	1.391	2.072	1.814	0.988	1.503	0.891	0.826	1.089	1.077
285.0	457.3	290.8	337.7	361.3	386.4	349.3	136.6	59.21	62.20	92.59	147.6	137.7	223.6	141.7	74.33	94.99	 1738	9999.9	 7462	476.1	12.94	11.71	12.12	9.164	7.846	6.095	5.267	4.190	4.420	4.441	2.746	3.040	3.300	2.486	2.806	2.682	2.611	2.355	1.631	3.207	3.233	1.982	2.418	1.666	1.879	1.506	3.300	1.955	2.514	2.203	2.536
290.0	980.5	575.8	590.6	646.7	602.1	560.0	280.3	138.4	72.51	127.4	179.5	196.1	228.6	381.9	184.8	106.6	173.5	 3925	9999.9	9999.9	598.2	24.93	14.66	11.28	8.548	6.807	6.181	4.744	6.644	3.180	3.106	3.544	3.810	3.528	3.422	2.782	2.935	2.411	2.722	3.119	2.567	2.939	1.733	2.235	2.727	3.158	3.401	3.168	3.499	3.160	3.185
295.0	 1111	829.3	693.7	840.7	864.5	715.4	460.1	196.9	150.8	142.1	226.1	229.8	222.2	385.5	516.9	238.3	121.1	334.1	 6116	9999.9	9999.9	811.8	18.87	14.08	12.40	8.910	10.30	4.925	6.375	4.709	4.907	3.687	4.250	4.355	3.073	3.431	2.268	2.791	3.551	3.144	4.646	3.389	3.099	2.667	3.130	3.245	4.035	4.186	3.501	3.585	2.958
300.0	 1187	778.1	784.2	828.5	978.0	727.3	473.3	281.8	170.6	158.6	224.3	190.4	245.2	260.4	546.1	581.9	243.0	151.9	471.5	 7174	9999.9	9999.9	799.2	19.85	18.99	14.80	12.94	7.872	6.399	5.451	5.454	3.437	5.712	4.911	3.702	2.901	3.509	3.013	3.741	6.000	6.729	2.566	3.803	3.552	3.233	3.599	3.435	4.404	4.134	4.632	4.365
305.0	 1065	851.0	880.8	809.2	939.9	812.3	542.3	318.5	208.8	167.3	198.1	237.3	253.2	275.5	347.6	716.8	562.1	224.9	140.4	509.5	 7663	9999.9	9999.9	913.0	25.09	20.77	20.44	13.74	10.81	8.333	8.469	5.323	5.928	4.293	3.708	4.900	3.041	3.801	3.794	5.517	5.113	4.932	2.990	3.808	3.363	3.634	2.758	3.654	3.485	5.308	4.449
310.0	 1094	713.8	662.0	671.3	801.0	777.5	499.2	328.5	260.5	220.4	169.7	220.8	252.5	271.5	322.1	409.9	838.1	463.6	158.0	117.5	547.8	 8311	9999.9	9999.9	 1013	32.45	24.51	18.27	12.20	9.953	7.271	7.783	4.864	4.849	3.494	4.931	4.170	3.767	3.653	3.356	5.010	5.143	2.879	2.800	3.955	3.319	2.744	3.987	2.976	4.244	3.504
315.0	832.3	696.3	640.2	475.3	627.1	572.2	463.8	345.6	271.6	190.5	198.2	211.4	244.8	267.6	324.8	355.5	480.3	789.9	330.5	109.6	108.0	586.8	 9600	9999.9	9999.9	842.0	27.79	28.63	18.55	15.54	9.660	8.055	6.160	5.478	7.864	3.795	3.553	5.681	4.757	3.746	4.333	4.581	3.365	2.879	3.612	2.848	2.816	4.566	3.450	4.237	3.916
320.0	619.7	621.8	468.1	512.5	598.1	621.1	538.3	352.3	233.8	230.0	231.5	218.8	254.6	282.1	329.4	345.9	359.5	557.2	711.2	238.0	105.3	114.3	664.6	 9621	9999.9	9999.9	845.7	37.51	23.27	19.66	15.06	10.82	9.639	8.923	7.043	6.215	3.968	4.459	3.714	3.324	3.731	4.748	3.906	3.300	2.954	2.485	3.448	4.230	3.841	4.657	3.575
325.0	504.6	451.5	366.3	466.0	463.1	619.7	576.4	426.9	283.8	215.1	217.9	249.8	275.1	330.3	356.4	393.8	371.1	355.2	555.7	587.2	176.6	97.37	118.0	671.6	 9526	9999.9	9999.9	880.8	34.96	27.06	22.14	14.18	10.40	8.378	6.267	6.401	7.347	4.807	4.676	4.619	3.972	4.118	2.278	3.689	3.297	3.167	3.969	3.210	3.104	3.499	3.211
330.0	451.0	376.3	430.8	416.0	445.4	596.3	644.8	493.9	333.0	220.3	257.3	230.7	286.1	321.9	382.1	428.5	386.3	354.0	326.8	630.3	475.2	152.3	97.98	114.5	660.2	 8921	9999.9	9999.9	855.3	38.08	27.01	21.35	16.13	8.598	9.276	7.862	6.805	4.462	3.749	4.304	4.093	3.686	3.355	3.595	3.606	2.650	4.972	2.342	3.635	3.159	3.676
335.0	324.2	313.4	421.1	423.6	463.3	479.4	599.6	470.7	353.4	297.9	287.5	280.5	278.4	354.2	386.9	391.0	407.7	401.3	318.0	312.4	617.6	396.5	133.4	98.62	118.0	624.9	9999.9	9999.9	9999.9	865.1	39.80	23.63	16.82	16.06	11.95	9.477	6.964	4.296	4.605	4.320	4.158	3.379	3.008	3.399	3.266	3.113	2.829	2.634	3.708	3.547	3.501
340.0	298.6	315.1	353.7	411.4	481.4	527.8	618.4	517.4	387.4	270.3	298.2	295.2	273.4	347.4	383.4	407.7	427.3	410.6	353.4	289.6	312.5	585.1	285.6	126.9	99.09	124.5	703.7	 9936	9999.9	9999.9	952.6	37.72	28.88	22.94	15.63	11.55	8.311	7.558	5.163	4.857	3.712	4.504	3.364	3.609	2.608	2.311	3.682	2.485	3.142	3.888	3.309
345.0	272.4	288.8	295.6	341.9	397.4	561.2	631.4	559.2	404.6	347.3	300.6	319.6	344.8	380.1	398.3	425.1	423.9	408.6	367.5	322.1	265.9	360.8	549.2	247.3	136.0	125.4	135.1	708.8	 8151	9999.9	9999.9	969.0	40.29	27.66	23.73	18.48	11.15	8.942	6.410	5.185	5.076	3.845	4.062	3.312	2.583	3.545	3.798	3.081	3.706	3.747	3.115
350.0	196.9	226.0	331.2	309.8	428.8	485.5	528.2	539.1	437.7	363.6	353.2	353.0	345.6	418.1	422.1	438.6	417.8	452.1	424.4	365.9	293.4	278.3	438.5	552.4	240.6	145.0	135.4	153.6	596.7	 8003	9999.9	9999.9	989.2	41.86	31.13	21.19	15.65	10.80	9.284	5.002	4.433	4.457	3.986	4.058	3.891	3.298	2.605	3.967	2.356	4.295	3.504
355.0	338.7	296.1	290.0	321.4	459.7	518.7	476.8	533.2	484.9	414.8	399.2	386.5	420.2	423.5	464.4	473.5	462.8	476.8	419.8	388.7	346.7	325.3	335.5	501.6	508.8	240.0	177.3	148.4	150.9	594.4	 7273	9999.9	9999.9	 1013	43.56	29.94	23.00	14.81	10.25	7.114	6.035	5.501	4.826	4.728	4.029	2.514	2.779	3.392	2.908	3.250	3.397
360.0	265.8	287.5	303.6	305.5	444.5	498.7	591.1	556.5	483.9	454.6	476.0	454.9	450.9	497.7	497.4	514.6	525.7	531.1	492.1	442.5	385.5	361.6	354.4	384.7	593.8	478.9	246.9	192.4	166.1	156.9	552.3	 7951	9999.9	9999.9	971.3	47.27	29.20	21.91	13.02	9.824	9.872	5.477	4.428	5.207	4.837	2.680	3.512	2.581	3.326	2.873	3.401
365.0	224.6	266.3	330.2	380.3	431.1	506.4	611.2	563.6	562.1	554.6	468.4	479.4	509.1	549.0	545.1	578.9	565.8	543.3	541.5	488.9	471.6	414.9	415.2	398.9	458.5	631.6	438.3	283.4	219.6	170.5	155.0	593.6	 7384	9999.9	9999.9	 1031	46.11	27.46	20.41	13.16	9.197	7.027	6.162	7.375	4.222	3.746	4.366	4.106	2.946	3.099	2.863
370.0	177.6	297.4	306.3	478.9	474.1	553.6	593.7	540.8	594.7	560.4	542.4	563.7	548.9	556.2	611.4	580.8	618.8	569.1	541.5	524.3	510.4	490.5	478.5	476.2	456.3	525.6	650.4	416.3	279.2	209.8	173.5	144.9	552.8	 7356	9999.9	9999.9	 1017	42.22	29.88	19.96	13.08	9.697	7.073	6.499	4.470	4.168	3.776	4.366	3.156	3.776	3.663
375.0	244.4	255.5	361.4	410.2	523.7	499.4	514.6	602.2	677.6	628.1	625.8	579.0	568.3	599.4	647.1	654.0	604.2	635.0	602.4	591.3	568.4	554.1	544.6	544.2	520.9	503.3	582.1	639.5	401.2	275.9	221.7	167.2	147.2	552.4	 7413	9999.9	9999.9	990.6	37.75	23.66	17.63	14.39	8.222	7.011	6.402	6.489	5.069	2.345	4.882	3.880	3.664
380.0	229.0	232.3	401.1	462.3	547.0	505.8	565.0	601.7	604.8	648.6	626.2	662.1	669.0	664.2	651.9	672.1	636.7	657.7	624.4	593.0	592.5	573.6	611.7	571.6	571.8	547.8	537.1	640.5	601.1	354.6	275.8	218.5	162.6	145.5	555.9	 7506	9999.9	9999.9	882.1	33.94	24.04	16.26	13.29	9.148	7.922	5.716	4.693	4.672	4.485	3.396	3.677
385.0	296.2	316.8	332.2	405.6	541.4	586.1	693.1	684.5	721.8	692.3	722.0	718.8	655.6	658.9	749.8	707.0	713.9	710.1	685.1	645.4	626.4	641.3	617.0	639.5	633.1	595.6	574.0	548.5	681.9	551.3	348.7	277.2	212.1	157.6	159.4	556.7	 6530	9999.9	9999.9	857.6	35.36	22.08	16.92	12.87	9.574	6.245	6.177	5.951	4.506	3.207	4.137
390.0	166.1	294.8	447.9	457.7	569.0	637.3	634.0	648.1	708.9	723.6	750.8	739.5	680.2	766.6	745.3	762.9	759.1	749.5	707.8	661.5	651.4	667.2	648.6	673.6	660.6	652.1	634.1	587.6	587.6	681.6	495.2	337.2	272.6	216.0	163.2	146.5	495.3	 5967	9999.9	9999.9	803.1	36.00	23.25	16.78	10.97	7.816	6.967	5.037	4.355	3.906	4.041
395.0	221.0	359.6	429.2	487.6	560.5	649.9	758.0	719.0	804.7	740.4	839.2	782.9	762.0	770.8	804.8	782.9	816.0	759.4	708.6	715.0	678.9	693.9	683.6	682.2	717.7	668.0	660.3	624.1	605.8	617.1	664.4	466.6	338.2	282.6	216.5	162.1	144.4	464.0	 5498	9999.9	9999.9	801.2	32.51	24.38	14.35	12.16	10.57	6.189	7.494	4.286	4.381
400.0	292.3	243.3	422.6	536.3	541.3	709.4	744.2	731.2	784.1	794.2	819.6	809.0	815.6	815.7	835.0	872.4	813.6	787.1	775.2	744.4	722.4	706.1	701.6	719.9	723.0	716.9	712.4	677.1	636.1	584.8	646.8	621.2	415.8	341.1	269.1	203.4	151.7	135.8	425.2	 5263	9999.9	9999.9	765.6	29.92	19.26	15.25	11.17	9.471	6.674	5.831	5.481
405.0	252.2	325.7	506.4	599.4	524.9	692.1	686.1	794.7	835.2	884.8	846.4	803.4	825.5	854.1	858.9	878.2	890.1	797.3	818.7	758.0	716.2	731.5	745.5	756.9	735.6	745.5	748.3	723.0	671.8	654.7	606.8	668.8	574.4	414.7	314.0	256.3	190.7	144.0	124.4	404.2	 4656	9999.9	9999.9	636.0	24.83	21.02	14.59	10.94	7.508	8.684	6.869
410.0	218.3	384.6	496.3	588.1	592.3	741.8	778.5	828.4	818.8	859.5	927.7	893.1	846.4	927.9	960.0	916.7	942.9	897.0	838.9	776.0	748.5	743.9	765.4	778.4	774.5	778.7	793.6	747.8	693.8	669.6	627.0	599.7	665.0	534.8	399.3	307.4	237.7	178.4	126.4	112.2	359.0	 4684	9999.9	9999.9	556.7	26.63	20.13	14.73	10.65	8.196	7.038
415.0	243.0	288.5	492.0	499.6	614.2	663.0	771.5	850.5	846.3	918.6	886.1	906.4	878.6	951.7	948.0	965.9	902.5	906.9	840.5	800.5	741.5	746.6	753.3	770.2	745.7	763.7	772.3	773.3	727.8	701.7	649.3	602.5	606.0	676.6	509.6	362.2	278.1	214.2	151.4	114.4	97.61	353.8	 4519	9999.9	9999.9	575.4	23.43	17.91	13.18	10.21	8.664
420.0	255.9	354.4	492.8	515.7	556.6	702.3	774.5	832.0	802.5	952.2	859.7	928.0	903.4	959.6	 1029	 1008	983.8	902.7	818.0	818.9	743.2	729.9	738.2	784.5	775.9	753.4	762.8	763.3	763.7	711.1	688.6	638.3	608.0	654.1	592.8	442.0	318.6	248.9	185.5	135.6	98.14	96.83	345.8	 5997	9999.9	9999.9	512.8	23.66	16.47	13.16	9.959
425.0	272.1	368.8	501.1	533.0	609.8	616.5	775.9	814.1	836.3	871.8	869.5	851.1	925.5	 1024	 1043	988.6	 1012	892.0	870.6	795.7	748.8	739.3	764.9	744.3	748.5	744.2	771.1	768.7	751.6	713.5	689.2	689.3	622.6	594.2	620.0	530.4	368.6	280.8	217.3	174.2	120.8	89.56	88.24	433.6	 3930	9999.9	9999.9	471.4	22.00	17.18	10.01
430.0	292.4	484.2	442.9	489.9	629.5	691.7	777.2	792.6	815.6	882.2	930.5	921.6	930.2	 1023	 1040	 1031	994.3	921.8	870.0	756.9	716.3	703.0	722.8	736.7	748.3	749.3	748.3	757.8	747.6	715.8	693.4	673.8	649.9	610.6	575.1	587.3	448.4	317.0	245.1	189.0	144.2	115.9	86.44	87.01	296.4	 3820	9999.9	9999.9	403.4	22.94	15.90
435.0	238.0	389.3	462.9	523.7	667.4	680.5	746.6	783.3	849.6	896.0	954.2	996.0	995.2	 1055	 1035	 1052	 1002	939.4	836.4	780.1	698.2	697.6	702.3	713.5	735.7	729.4	715.5	727.5	726.6	709.6	705.0	679.4	664.0	635.5	578.0	541.5	510.9	369.9	268.6	215.1	173.8	125.7	100.8	83.68	78.69	288.3	 4056	9999.9	9999.9	394.1	23.02
440.0	306.3	306.2	508.6	526.4	639.7	674.7	781.2	741.8	765.4	843.7	931.0	931.0	 1000	976.1	 1081	 1032	 1031	936.1	837.7	747.9	699.9	664.3	681.9	692.9	689.1	691.9	724.4	717.8	733.2	704.6	698.0	679.6	668.4	599.5	574.2	515.6	489.3	455.0	327.9	238.8	191.2	153.4	116.6	90.60	76.32	76.59	302.3	 3972	9999.9	9999.9	344.5
445.0	226.0	331.4	483.0	480.5	549.0	722.8	703.9	828.8	843.4	833.7	884.8	865.3	940.8	 1032	 1034	 1055	938.6	900.8	817.3	726.0	680.2	683.8	648.0	654.3	651.2	670.5	674.4	686.0	694.1	687.7	682.4	656.4	660.6	615.0	579.7	522.6	450.3	458.8	386.9	269.0	212.3	172.9	139.2	101.6	83.02	70.94	73.42	293.5	 3954	9999.9	9999.9
450.0	252.2	359.4	363.6	480.0	618.3	561.4	675.6	801.2	789.8	848.3	867.0	900.6	921.5	 1013	974.1	 1029	983.9	873.2	773.8	702.9	647.7	647.4	621.8	625.2	635.7	634.8	619.4	659.7	649.8	657.7	676.2	640.2	635.5	614.3	586.6	511.7	457.5	406.3	397.7	319.6	241.0	189.7	155.6	130.2	109.7	82.27	67.44	67.06	289.7	 3769	9999.9
455.0	276.8	257.6	344.3	446.0	504.6	601.5	710.3	770.0	790.4	778.4	814.3	845.5	975.3	964.4	988.9	945.5	938.4	855.2	739.2	656.3	595.5	585.0	584.9	597.8	590.5	593.5	603.5	632.7	613.6	615.4	610.1	593.7	605.5	591.5	558.7	507.8	459.7	386.6	355.7	352.8	269.1	201.8	168.5	143.3	120.2	91.44	73.33	64.88	66.30	277.2	 3845
460.0	301.0	354.0	484.5	427.7	494.7	548.1	626.9	641.5	676.8	782.2	777.8	856.7	857.3	916.2	914.9	937.4	871.4	830.5	720.6	649.7	598.5	544.4	553.6	552.4	547.3	556.8	562.5	590.6	586.0	602.0	583.3	583.1	556.7	568.7	531.2	489.0	438.1	380.6	326.8	327.3	301.4	235.6	181.0	148.2	121.6	104.6	85.59	69.80	56.95	63.34	276.3
465.0	203.6	302.5	389.1	417.8	491.2	524.6	545.1	661.0	629.9	766.3	743.0	811.9	810.4	843.8	880.5	889.7	831.8	780.8	691.4	601.1	572.5	546.7	515.3	526.3	506.0	520.2	532.6	528.3	540.2	547.5	544.4	525.1	537.2	546.0	484.8	478.5	431.4	377.6	330.0	302.0	285.8	263.0	203.0	164.1	134.2	112.3	95.44	79.77	62.67	55.21	62.30
470.0	183.3	269.9	335.0	432.1	355.1	510.0	536.5	632.9	597.4	680.3	693.3	769.6	772.6	796.5	861.1	854.4	779.0	715.1	686.1	566.6	535.8	483.9	476.2	476.1	472.2	470.8	492.1	493.3	492.9	487.6	498.7	496.7	512.0	491.9	471.2	454.6	403.1	357.9	312.9	278.7	251.5	277.3	226.7	167.5	139.4	122.3	99.39	85.98	69.32	56.73	47.65
475.0	297.5	304.8	253.8	290.9	344.5	505.7	508.8	515.4	591.6	620.3	691.6	683.4	742.6	695.2	747.4	783.4	730.6	666.4	590.9	531.1	471.6	463.2	439.3	427.6	444.6	408.2	446.5	442.2	452.3	454.0	444.9	462.5	484.3	472.7	454.0	407.6	375.2	335.9	302.0	270.8	241.4	240.2	227.5	190.2	148.7	126.6	106.8	88.38	74.12	64.96	51.18
480.0	210.9	262.8	291.6	297.5	446.8	420.8	443.5	468.5	534.5	569.5	630.6	654.9	704.4	727.8	686.9	743.8	689.3	614.4	535.5	515.2	444.1	415.3	421.2	409.3	410.2	403.6	404.5	406.4	397.8	410.9	417.7	422.3	420.3	424.0	418.6	376.2	356.5	321.1	297.4	263.3	233.2	209.5	208.6	206.6	155.5	124.9	98.98	95.71	75.60	68.67	56.19
485.0	208.0	232.2	246.0	332.3	392.8	344.3	437.5	486.1	526.0	542.6	561.9	593.1	656.5	651.2	663.4	693.2	669.2	559.5	519.6	459.4	431.2	410.4	396.3	360.9	378.2	377.0	377.4	375.4	377.3	392.2	387.3	388.3	399.9	401.4	404.6	376.8	341.5	321.0	284.0	248.1	225.1	206.5	190.9	197.6	180.7	142.8	112.4	104.5	87.52	75.86	61.25
490.0	149.2	218.7	267.0	282.0	327.5	347.4	407.3	417.5	507.2	484.0	502.8	621.5	580.7	606.2	615.3	651.2	605.1	550.6	479.5	420.1	405.7	407.5	358.7	359.3	354.0	336.3	340.0	360.5	353.0	365.8	352.8	362.8	365.6	380.4	375.3	349.9	316.7	298.9	257.9	245.3	221.8	197.5	175.8	177.8	187.2	162.3	120.8	96.97	87.86	80.47	66.34
495.0	134.4	210.5	247.6	289.0	246.9	338.4	343.9	380.8	463.9	471.7	483.0	515.4	519.2	599.3	574.2	574.5	565.1	522.0	468.3	400.0	364.3	340.2	323.8	350.7	335.2	306.3	327.2	330.3	308.0	323.5	325.4	345.1	340.4	341.5	337.9	314.5	298.8	280.2	250.5	228.4	206.8	186.4	177.4	157.0	163.5	159.8	137.5	99.72	90.60	83.32	71.02
500.0	138.0	126.5	172.8	235.9	257.1	316.1	349.3	373.2	438.6	433.9	480.9	459.2	487.4	548.6	542.4	564.3	532.8	479.9	432.4	389.8	330.3	354.5	318.6	293.1	280.4	286.1	301.4	306.6	305.2	307.5	302.8	302.7	302.4	306.3	311.1	301.0	285.5	256.5	250.1	212.6	196.4	177.0	164.5	161.4	139.6	142.9	146.1	113.5	98.58	80.07	68.63
505.0	124.4	210.4	204.7	191.9	235.8	291.7	305.6	340.3	424.9	416.4	443.1	459.7	440.8	485.7	501.3	522.7	482.5	444.6	410.3	358.6	330.2	318.7	278.6	288.2	270.5	283.9	266.0	280.2	267.7	270.6	271.4	266.6	276.1	286.9	289.9	264.6	253.5	241.0	220.4	203.1	190.4	169.0	154.3	150.7	135.7	120.8	132.0	127.8	98.72	80.78	73.59
510.0	238.9	135.1	164.5	239.7	169.3	286.3	301.3	312.3	335.3	356.3	393.4	396.2	433.8	481.3	474.6	492.0	482.9	391.7	370.3	313.3	301.9	283.0	259.3	262.3	252.6	239.2	247.6	244.5	250.9	244.6	250.1	244.5	259.5	257.3	259.1	247.3	225.8	215.2	202.2	185.3	172.1	157.1	149.1	140.5	126.6	113.4	115.4	127.4	112.3	86.68	69.26
515.0	171.1	168.0	197.8	219.0	171.3	228.4	296.9	334.2	337.5	339.5	373.7	377.2	397.4	437.1	462.1	432.1	414.1	385.0	332.8	279.2	278.6	244.0	232.0	243.7	229.3	221.0	221.2	213.7	217.0	229.9	217.1	236.2	230.1	234.5	234.2	227.9	210.9	197.0	180.0	171.1	158.2	155.5	140.0	140.7	115.4	110.0	102.6	108.8	111.8	91.38	68.85
520.0	168.0	155.9	145.0	140.7	215.0	180.7	243.3	202.6	267.0	257.4	317.0	355.4	350.0	385.6	408.8	399.7	374.8	356.4	315.2	277.7	230.6	227.3	213.4	209.6	193.7	192.2	191.1	199.0	190.2	198.6	189.5	199.3	200.3	214.0	213.0	197.8	194.7	181.6	170.0	155.5	149.4	138.4	130.8	116.6	114.4	100.9	102.4	89.22	97.47	98.48	73.39
525.0	97.58	148.8	176.0	132.4	222.4	153.7	198.6	215.7	268.2	307.9	280.1	298.6	332.8	348.6	341.9	356.6	356.9	313.8	289.0	248.3	220.0	210.2	206.6	187.4	174.2	185.3	180.6	183.4	172.0	175.0	173.4	178.5	183.9	186.7	192.9	183.9	174.2	157.8	150.2	138.6	130.6	121.7	117.5	114.5	103.2	97.45	89.00	82.50	91.02	96.51	79.53
530.0	108.0	82.49	134.6	118.5	167.6	184.0	204.4	221.4	254.6	225.8	254.6	272.8	302.5	334.3	341.8	337.0	318.5	292.5	243.8	232.2	203.8	201.9	182.4	183.9	168.1	173.0	154.5	165.7	157.5	160.9	161.3	163.2	159.8	167.2	172.0	164.2	151.8	143.0	137.4	127.3	110.7	112.0	106.5	102.1	93.37	92.16	78.90	78.24	72.88	75.07	77.34
535.0	84.19	122.2	103.6	149.7	145.6	156.3	201.0	224.7	222.7	244.7	214.7	243.1	247.9	271.2	311.0	297.2	304.0	270.8	228.3	211.5	175.7	180.2	172.4	159.8	149.7	154.4	139.9	146.1	135.2	136.6	144.0	142.9	150.8	144.2	148.6	142.9	137.7	128.6	120.5	117.4	107.0	110.6	95.60	86.25	81.64	81.32	72.93	74.95	65.75	70.31	67.18
540.0	58.13	87.67	92.56	98.78	139.6	152.9	139.8	197.1	159.5	211.0	219.3	218.9	241.5	252.9	301.1	274.0	258.9	263.3	209.5	183.8	161.0	160.2	142.6	153.7	141.6	133.8	131.4	127.9	124.6	118.7	127.6	134.8	134.3	129.2	130.5	133.9	121.9	115.1	108.6	102.3	101.7	92.52	91.36	79.12	79.46	80.44	74.09	69.21	63.89	61.66	59.44
545.0	116.6	82.37	129.8	129.6	125.9	100.8	173.1	174.5	144.3	189.0	186.8	177.4	225.7	225.4	266.7	320.3	236.2	210.7	193.5	164.3	156.8	142.7	140.7	133.8	125.4	124.5	118.8	116.0	110.1	110.9	115.7	112.0	108.5	114.2	107.9	114.4	111.4	98.94	97.45	88.59	89.51	81.97	76.09	79.34	76.80	71.01	66.41	60.07	57.27	55.64	50.78
550.0	93.29	72.44	97.51	94.82	90.21	144.6	107.5	114.0	153.0	149.7	201.3	168.8	185.8	216.4	233.1	387.9	293.0	188.2	181.4	143.0	145.2	131.6	137.3	114.1	115.8	115.1	107.3	102.8	109.7	99.28	106.8	99.40	105.3	107.9	101.8	105.5	101.1	90.93	96.86	81.27	75.11	74.08	73.63	68.20	63.21	60.91	59.05	56.59	53.34	48.57	47.19
