Sample:	'SLABO1-5-5-320
File name:	3H12.FD3
Run Date:	17:32:46, 08/24/2022
Operator:	Administrator
Comment:	'

Instrument
Model:	F-7000 FL Spectrophotometer
Serial Number:	2354-007
ROM Version:	5J14000 06

Instrument Parameters
Measurement type:	3-D Scan
Data mode:	Fluorescence
EX  Start WL:	200.0 nm
EX  End WL:	450.0 nm
EX Sampling Interval:	5.0 nm
EM  Start WL:	280.0 nm
EM  End WL:	550.0 nm
EM Sampling Interval:	5.0 nm
Scan speed:	12000 nm/min
EX Slit:	5.0 nm
EM Slit:	5.0 nm
PMT Voltage:	700 V
Response:	Auto 
Corrected spectra:	Off
Shutter control:	On
Contour interval:	25.000

Peak integration
Integration method:	Rectangular
Sensitivity:	1
Threshold:	1.000

Peaks
No.	ApexEX/EM(nm)	Height(Data)
1	210.0/340.0	521.7
2	210.0/495.0	253.4
3	210.0/520.0	162.7
4	210.0/540.0	147.7
5	220.0/310.0	782.0
6	220.0/455.0	509.8
7	220.0/530.0	192.0
8	225.0/305.0	841.9
9	225.0/410.0	718.4
10	230.0/330.0	930.2
11	230.0/340.0	866.7
12	230.0/385.0	711.0
13	230.0/425.0	671.6
14	230.0/505.0	250.6
15	230.0/525.0	206.6
16	235.0/400.0	739.6
17	235.0/430.0	728.6
18	235.0/455.0	591.4
19	235.0/490.0	367.3
20	235.0/520.0	230.9
21	240.0/395.0	728.5
22	240.0/410.0	727.2
23	240.0/420.0	683.9
24	240.0/445.0	715.9
25	240.0/465.0	571.6
26	240.0/530.0	204.4
27	245.0/380.0	676.9
28	245.0/430.0	775.3
29	250.0/405.0	759.7
30	250.0/425.0	761.6
31	250.0/445.0	694.4
32	260.0/420.0	739.0
33	260.0/455.0	688.7
34	265.0/405.0	714.7
35	265.0/435.0	738.9
36	270.0/375.0	636.3
37	270.0/430.0	816.2
38	270.0/440.0	729.1
39	270.0/450.0	722.0
40	270.0/495.0	482.9
41	275.0/305.0	905.5
42	275.0/395.0	688.6
43	275.0/410.0	761.9
44	275.0/420.0	762.9
45	280.0/310.0	993.1
46	280.0/360.0	665.7
47	280.0/385.0	671.8
48	280.0/415.0	758.4
49	280.0/440.0	787.9
50	285.0/315.0	994.1
51	285.0/345.0	645.6
52	285.0/365.0	682.0
53	285.0/380.0	688.6
54	285.0/400.0	743.3
55	290.0/320.0	841.6
56	300.0/335.0	644.2
57	300.0/395.0	670.7
58	305.0/340.0	592.5
59	310.0/345.0	566.9
60	310.0/440.0	597.9
61	315.0/350.0	554.4
62	315.0/415.0	692.3
63	320.0/360.0	597.2
64	325.0/365.0	626.9
65	325.0/410.0	737.6
66	330.0/370.0	630.9
67	330.0/415.0	732.9
68	335.0/375.0	615.4
69	340.0/385.0	644.3
70	345.0/390.0	622.6
71	350.0/400.0	597.7
72	355.0/405.0	592.5
73	360.0/285.0	5.605
74	360.0/410.0	609.1
75	365.0/415.0	601.1
76	370.0/300.0	6.809
77	380.0/285.0	5.541
78	395.0/295.0	5.493
79	395.0/325.0	6.880
80	405.0/315.0	6.459
81	410.0/475.0	208.7
82	415.0/480.0	188.0
83	420.0/330.0	5.592
84	420.0/490.0	158.8
85	425.0/305.0	5.651
86	425.0/325.0	5.602
87	425.0/495.0	146.7
88	430.0/300.0	5.425
89	430.0/315.0	6.051
90	435.0/325.0	5.834
91	435.0/510.0	116.3
92	440.0/305.0	5.069
93	440.0/515.0	95.79
94	445.0/350.0	6.201

Data Points
	200.0	205.0	210.0	215.0	220.0	225.0	230.0	235.0	240.0	245.0	250.0	255.0	260.0	265.0	270.0	275.0	280.0	285.0	290.0	295.0	300.0	305.0	310.0	315.0	320.0	325.0	330.0	335.0	340.0	345.0	350.0	355.0	360.0	365.0	370.0	375.0	380.0	385.0	390.0	395.0	400.0	405.0	410.0	415.0	420.0	425.0	430.0	435.0	440.0	445.0	450.0
280.0	98.68	71.71	87.00	59.94	93.82	71.13	50.34	10.73	28.21	31.61	48.92	63.63	58.94	27.90	20.66	 1102	 6420	 2646	89.10	14.84	12.66	12.71	9.752	6.634	7.713	7.604	6.777	3.581	3.477	4.243	6.578	4.479	4.757	3.713	4.022	3.140	3.104	3.827	3.056	1.780	1.893	2.402	2.186	1.662	1.725	2.106	2.071	1.500	2.034	1.349	1.246
285.0	346.4	216.5	199.5	237.0	242.4	268.1	147.8	69.57	51.58	103.1	121.6	143.1	211.8	137.8	70.88	117.1	 2530	9999.9	9999.9	580.9	18.75	16.30	15.27	10.33	9.915	7.390	6.035	5.603	5.152	4.204	5.934	3.692	5.605	4.060	2.717	2.761	5.541	2.369	3.285	3.708	2.991	3.563	2.214	2.044	2.654	2.204	1.747	3.394	3.071	2.554	2.152
290.0	762.0	386.1	316.5	434.3	466.3	429.6	350.9	154.6	97.47	147.2	191.1	189.4	230.8	354.7	183.1	116.0	241.2	 5745	9999.9	9999.9	815.5	25.66	16.28	17.98	13.39	9.915	7.223	8.054	6.441	5.761	4.943	5.963	3.500	3.034	4.272	3.456	4.848	4.887	4.492	3.708	3.367	3.287	4.209	2.811	2.994	3.170	2.702	2.008	2.269	3.988	2.824
295.0	835.9	611.2	559.4	627.1	670.5	679.7	531.5	213.5	158.6	152.9	170.7	197.8	208.7	376.9	522.9	276.6	188.3	507.9	 8669	9999.9	9999.9	 1072	29.55	21.75	18.47	14.04	11.80	10.51	7.401	6.809	7.932	5.034	5.779	6.614	5.538	4.858	4.489	4.415	4.672	5.493	4.490	3.869	3.785	3.272	2.997	5.226	4.072	4.633	3.786	3.480	3.036
300.0	 1093	667.7	666.9	577.2	703.4	818.8	635.0	335.4	244.5	209.6	222.2	230.4	259.3	291.9	644.9	664.8	326.5	233.5	664.6	9999.9	9999.9	9999.9	 1001	33.13	28.69	19.19	16.59	13.35	9.150	9.684	8.928	5.446	5.821	6.252	6.809	5.099	5.504	5.137	5.176	4.260	4.254	3.987	3.706	3.287	3.917	4.312	5.425	5.085	3.607	5.085	4.392
305.0	 1064	860.9	744.5	670.4	778.6	841.9	697.2	401.2	263.6	236.9	238.6	247.3	256.8	347.1	437.9	905.5	719.8	325.9	204.8	742.0	9999.9	9999.9	9999.9	 1216	40.24	31.28	30.60	18.79	14.08	9.598	10.22	8.510	8.132	6.800	5.427	5.650	6.277	5.680	3.622	6.159	4.450	4.731	4.595	4.648	3.933	5.651	3.593	4.292	5.069	4.113	4.517
310.0	901.7	612.6	587.7	630.5	782.0	759.5	656.7	486.6	313.2	261.4	223.7	279.4	325.9	361.6	461.1	554.3	993.1	601.6	267.3	181.1	727.8	9999.9	9999.9	9999.9	 1339	41.95	37.33	27.18	18.43	13.79	9.762	10.36	9.798	6.576	5.930	6.913	5.767	5.155	5.615	5.524	5.628	5.606	4.572	5.503	3.744	4.753	3.729	4.463	4.408	4.661	4.589
315.0	746.2	622.7	605.2	548.0	710.5	673.9	732.3	492.2	320.5	259.8	257.4	261.4	311.5	392.4	471.2	513.3	711.9	994.1	464.1	187.2	154.4	712.8	9999.9	9999.9	9999.9	 1083	53.92	38.28	26.15	16.41	15.01	10.45	10.58	8.576	7.639	6.137	6.105	6.696	5.680	5.674	5.008	6.459	4.491	4.476	4.433	3.853	6.051	4.421	4.021	4.610	3.765
320.0	565.6	644.9	581.4	633.5	721.9	786.3	870.7	547.6	363.7	282.3	255.3	308.7	294.3	388.1	514.4	537.1	574.1	746.2	841.6	313.9	156.9	131.8	707.4	9999.9	9999.9	9999.9	 1378	50.53	36.21	23.96	21.27	14.28	13.41	8.791	8.892	7.615	7.948	8.271	5.309	5.816	5.963	4.258	4.626	5.240	5.211	4.949	4.503	4.553	4.581	4.378	4.593
325.0	493.5	460.9	452.1	603.1	590.0	743.5	870.5	596.0	397.6	277.5	257.7	317.6	361.0	417.6	510.8	580.8	588.6	555.7	722.4	694.0	228.5	130.9	134.7	720.4	9999.9	9999.9	9999.9	 1232	57.05	33.30	33.09	20.87	15.32	13.84	12.60	8.390	9.429	8.511	5.791	6.880	5.192	5.121	5.154	3.556	5.329	5.602	4.497	5.834	3.861	5.630	4.694
330.0	488.4	462.8	494.9	502.4	669.5	774.4	930.2	631.0	408.9	344.7	266.5	309.2	335.1	389.4	517.5	589.4	597.5	579.9	475.0	687.9	548.7	171.8	121.6	130.7	714.4	9999.9	9999.9	9999.9	 1095	54.35	47.82	29.04	24.11	14.89	11.43	11.40	9.723	9.481	7.120	5.875	5.632	5.795	4.463	5.243	5.592	4.163	4.048	3.543	3.964	5.357	5.374
335.0	400.9	446.8	387.1	534.9	741.1	699.0	828.0	592.8	420.6	326.6	349.9	358.1	392.9	417.2	539.4	590.7	621.6	596.5	465.3	416.4	644.2	420.6	152.2	115.0	130.2	717.5	9999.9	9999.9	9999.9	 1072	62.43	39.45	32.98	25.20	16.77	12.24	12.89	9.449	7.083	5.184	6.346	5.576	5.094	4.221	4.718	3.904	4.155	3.619	4.616	5.094	5.679
340.0	393.1	384.7	521.7	445.2	604.3	748.2	866.7	689.6	485.2	361.7	309.0	330.0	380.9	445.7	509.6	580.3	617.8	627.5	514.1	411.1	382.9	592.5	323.3	142.2	114.7	137.9	726.3	9999.9	9999.9	9999.9	 1296	61.59	52.06	29.09	25.53	16.41	16.48	12.40	7.013	6.573	6.438	6.330	5.695	5.113	4.724	4.577	4.074	4.729	4.514	5.140	4.710
345.0	389.9	421.9	415.9	459.9	530.3	730.9	840.4	699.1	493.2	385.7	352.7	372.9	361.0	479.6	502.3	560.1	637.4	645.6	525.2	421.2	326.4	384.6	566.9	283.5	148.2	121.3	145.7	717.3	9999.9	9999.9	9999.9	 1277	70.89	42.49	32.30	22.49	19.72	14.10	9.718	8.765	7.030	5.516	5.995	6.400	3.780	4.944	4.970	4.281	4.611	5.574	4.881
350.0	324.5	380.4	323.8	502.1	557.0	688.9	811.6	675.0	484.3	410.0	382.6	385.3	438.6	491.1	488.9	576.1	596.7	606.7	560.7	456.7	353.1	311.6	436.7	554.4	239.7	148.0	124.2	157.8	725.9	9999.9	9999.9	9999.9	 1401	63.28	46.93	36.54	30.71	20.86	9.970	11.22	8.410	6.825	5.653	5.067	4.437	5.689	5.003	3.361	3.633	6.201	5.654
355.0	310.6	352.1	345.6	467.6	528.1	640.5	801.1	703.8	501.8	497.6	401.9	405.6	442.4	496.4	562.5	618.8	635.9	625.9	606.4	498.6	399.3	361.2	332.6	514.7	499.6	234.4	166.9	153.1	161.5	722.9	9999.9	9999.9	9999.9	 1307	71.10	49.80	41.21	26.82	14.53	11.25	11.08	8.153	6.929	5.163	4.339	5.087	4.555	5.581	4.068	5.517	4.521
360.0	349.1	354.4	401.6	518.6	532.0	661.9	768.7	614.2	521.9	531.2	443.0	464.2	494.1	496.3	582.1	613.4	665.7	622.0	587.1	500.5	451.1	384.5	374.8	405.3	597.2	477.7	249.1	181.7	151.3	165.3	733.4	9999.9	9999.9	9999.9	 1274	61.24	61.97	36.11	23.28	14.39	10.97	7.930	7.968	7.799	5.630	5.778	6.051	5.157	4.490	4.566	5.252
365.0	307.1	312.8	444.0	492.1	516.1	589.1	710.9	634.2	628.0	511.9	546.9	453.7	504.8	522.9	584.3	583.4	648.9	682.0	629.5	569.1	489.2	457.2	427.2	402.8	450.7	626.9	443.2	268.5	194.7	160.1	165.6	721.7	9999.9	9999.9	9999.9	 1396	93.34	55.35	26.31	22.31	16.39	13.33	8.397	6.744	5.614	4.260	5.098	5.561	4.783	4.665	4.575
370.0	253.1	338.6	335.0	467.5	501.0	578.3	738.5	645.0	613.8	565.4	543.9	526.8	550.5	567.2	575.4	648.8	652.7	656.5	630.4	581.4	530.8	509.9	475.4	451.5	452.1	504.6	630.9	403.3	269.1	200.7	155.2	153.3	724.1	9999.9	9999.9	9999.9	 1713	72.05	35.28	31.25	22.35	14.99	9.493	8.707	8.211	5.869	4.658	5.350	3.874	5.003	5.085
375.0	310.8	345.1	391.5	372.6	488.0	593.8	658.9	645.6	635.0	614.8	601.8	532.8	551.5	575.1	636.3	616.5	620.4	686.6	633.1	618.5	551.0	565.7	544.3	519.2	492.7	484.2	577.6	615.4	363.2	242.1	209.4	148.0	150.3	717.8	9999.9	9999.9	9999.9	 1429	53.83	45.89	31.75	19.71	12.23	10.81	10.43	7.223	6.936	5.269	4.738	4.309	5.797
380.0	304.9	388.6	447.4	438.1	498.6	691.9	695.0	667.9	624.3	676.9	543.7	590.5	564.3	604.1	626.5	666.0	667.9	688.6	618.7	600.3	582.7	559.2	591.1	540.4	557.9	520.0	519.8	615.3	575.3	340.2	256.0	183.7	147.4	158.4	720.9	9999.9	9999.9	9999.9	 1192	62.25	43.83	30.06	21.14	13.98	12.11	9.334	6.628	5.883	4.324	4.811	4.649
385.0	288.8	333.6	366.1	437.0	503.7	650.1	711.0	672.4	605.8	654.5	604.9	588.7	573.2	566.5	598.8	656.7	671.8	646.0	663.2	633.3	601.1	600.0	625.5	593.0	597.2	575.2	541.5	514.3	644.3	511.4	318.6	242.2	176.4	147.7	149.0	716.3	9999.9	9999.9	9999.9	 1326	63.26	40.51	21.35	17.90	12.07	9.469	7.532	6.076	5.980	4.880	4.358
390.0	332.0	302.0	443.6	378.5	531.8	625.6	635.1	698.3	704.1	657.3	647.7	623.9	559.0	615.1	607.8	629.6	661.1	700.7	685.4	661.9	620.7	625.4	630.2	636.5	633.0	621.4	593.3	568.8	554.9	622.6	449.4	296.1	241.2	184.2	151.6	146.4	723.4	9999.9	9999.9	9999.9	 1464	54.85	31.28	25.65	16.73	13.52	9.862	8.192	7.244	5.665	6.576
395.0	320.0	397.4	399.1	433.5	520.2	693.3	707.7	670.0	728.5	716.0	652.2	645.4	649.5	597.5	596.2	688.6	668.3	701.3	693.3	654.1	670.7	656.9	655.5	657.2	641.9	655.3	630.1	609.8	548.3	571.1	597.6	391.0	298.2	237.5	186.3	136.9	153.3	714.6	 8188	9999.9	9999.9	 1349	48.71	35.97	19.86	16.46	12.88	10.28	7.023	7.169	5.969
400.0	230.0	367.9	402.5	450.5	652.1	654.0	737.1	739.6	650.0	703.4	685.4	616.1	640.2	612.8	656.5	647.7	729.1	743.3	695.3	705.3	659.6	672.7	683.7	682.5	687.3	689.1	666.9	619.1	585.5	538.4	597.7	569.1	380.6	292.5	243.5	185.0	142.1	140.5	593.3	 8472	9999.9	9999.9	 1038	49.51	27.34	23.46	18.05	11.21	8.479	7.227	6.865
405.0	265.8	303.0	329.3	481.2	547.1	625.5	711.8	733.6	685.7	750.2	759.7	657.3	666.9	714.7	631.7	711.9	702.1	732.4	708.6	692.8	675.3	663.9	697.8	684.1	711.9	702.4	705.9	654.8	607.6	560.4	535.1	592.5	528.3	360.9	280.0	230.1	178.0	127.4	126.4	601.4	 7954	9999.9	9999.9	 1227	39.31	29.39	20.25	14.60	13.20	9.733	7.129
410.0	252.7	394.5	402.1	482.3	481.1	718.4	695.2	715.6	727.2	698.0	692.7	681.3	679.7	675.8	712.3	761.9	754.7	719.6	698.9	702.7	669.5	654.8	680.8	674.5	712.5	737.6	727.7	687.3	665.3	616.9	571.2	533.4	609.1	499.7	340.4	270.4	215.2	147.6	110.4	118.1	569.8	 7658	9999.9	9999.9	828.0	42.09	30.64	17.89	14.99	9.888	8.304
415.0	203.3	253.6	455.0	480.5	549.9	640.9	646.1	707.1	663.8	693.0	741.1	712.4	706.5	669.1	728.2	713.1	758.4	754.4	709.7	692.2	653.8	646.3	675.0	692.3	683.1	701.7	732.9	689.8	679.4	642.1	591.3	551.5	573.5	601.1	443.3	323.4	256.4	184.8	134.9	102.9	110.0	539.6	 7082	9999.9	9999.9	888.0	40.01	25.60	17.84	14.01	12.10
420.0	286.9	262.6	404.8	498.3	550.7	578.0	620.7	683.5	683.9	675.7	727.8	713.6	739.0	723.2	698.3	762.9	753.7	728.8	708.5	676.5	629.5	652.1	659.7	681.6	685.9	696.7	723.5	695.1	672.6	649.1	605.4	573.7	536.8	559.3	548.8	371.2	277.0	221.8	162.2	123.0	94.79	105.4	496.7	 6824	9999.9	9999.9	957.1	32.54	24.94	17.74	13.25
425.0	235.3	257.5	415.1	501.3	631.2	665.9	671.6	651.9	673.1	675.9	761.6	733.1	700.4	721.5	756.8	728.8	736.9	710.3	692.8	675.1	643.4	616.3	639.2	649.0	656.6	701.1	694.4	676.3	682.9	625.9	631.3	585.7	547.6	540.4	543.6	487.9	330.2	235.0	180.7	142.5	103.5	82.96	93.80	479.0	 6205	9999.9	9999.9	665.6	35.70	21.04	17.76
430.0	303.4	329.7	496.7	444.8	546.4	610.9	651.4	728.6	656.5	775.3	752.4	708.4	708.1	706.2	816.2	735.5	750.5	727.5	689.4	645.9	613.3	609.6	585.9	625.4	655.2	678.6	688.6	670.8	661.8	655.8	629.9	609.6	579.0	533.1	501.7	525.2	397.1	275.7	211.2	169.1	122.2	98.13	75.95	87.63	435.3	 5661	9999.9	9999.9	791.4	29.18	25.23
435.0	232.8	290.9	391.6	477.1	496.6	574.0	621.8	674.4	662.1	674.1	669.8	686.2	692.5	738.9	699.2	692.9	729.0	719.2	697.8	594.7	596.1	585.8	592.6	608.7	630.5	670.7	665.3	666.0	632.4	637.2	618.0	604.4	570.9	540.7	497.7	476.7	457.7	336.4	230.6	190.8	139.4	105.5	82.00	71.14	80.37	398.2	 5491	9999.9	9999.9	572.2	32.93
440.0	196.5	360.0	357.5	398.8	486.0	479.9	605.9	575.3	655.3	669.0	652.0	686.2	703.9	706.9	729.1	690.5	787.9	684.7	656.0	612.5	582.8	584.2	597.9	582.0	595.2	648.2	632.3	624.8	632.9	622.4	604.6	574.8	576.6	542.7	503.2	458.5	434.8	398.2	278.1	203.3	165.1	128.8	98.53	80.12	67.08	73.51	390.0	 5429	9999.9	9999.9	627.5
445.0	194.0	319.2	324.2	348.0	455.8	522.7	583.6	602.0	715.9	610.3	694.4	669.0	690.0	670.4	705.4	696.3	725.4	668.6	643.5	599.3	560.1	549.7	552.7	542.8	576.3	611.5	621.4	617.1	604.8	594.0	589.6	573.5	567.8	537.8	499.0	449.9	399.2	389.9	343.7	230.6	177.7	140.7	114.2	95.75	72.09	58.87	72.30	387.4	 5528	9999.9	9999.9
450.0	207.7	271.0	308.9	359.3	432.0	497.7	593.8	569.1	670.6	651.6	651.5	623.8	627.3	651.7	722.0	720.8	701.9	691.1	614.9	546.8	537.7	511.1	521.5	522.7	534.9	549.9	588.8	573.2	560.2	579.4	561.9	558.8	539.4	526.8	486.8	431.6	379.2	339.0	339.1	287.8	197.2	163.2	130.2	101.4	89.58	70.75	58.68	66.59	386.9	 5795	9999.9
455.0	204.1	305.5	331.1	467.7	509.8	411.1	578.1	591.4	568.9	568.3	661.5	603.3	688.7	651.3	643.0	681.5	698.9	639.6	587.2	528.2	509.5	484.3	484.4	487.5	494.1	503.9	561.8	525.9	517.8	529.0	524.9	516.2	516.9	497.1	467.6	425.1	384.5	330.7	317.2	317.0	230.5	178.2	142.3	120.9	94.09	83.08	64.59	56.21	69.69	404.0	 5376
460.0	208.8	267.5	322.7	437.5	420.6	364.6	433.4	482.7	547.4	553.9	544.2	590.8	619.0	622.5	639.2	662.2	653.1	592.9	562.6	495.5	457.8	476.3	466.3	468.1	464.0	487.8	494.8	498.8	495.5	501.5	494.9	494.9	495.7	481.1	449.5	405.7	368.3	327.3	284.5	276.0	269.8	195.6	151.2	125.2	104.6	89.03	70.27	58.65	51.83	67.35	372.7
465.0	230.1	200.8	214.7	387.3	392.8	418.6	406.7	471.4	571.6	467.1	511.8	557.7	620.2	590.9	620.2	615.8	638.5	570.0	505.3	440.6	437.1	407.7	432.1	427.6	438.8	448.0	464.7	446.1	465.1	475.6	468.2	454.7	452.0	440.6	426.5	397.0	352.4	314.3	270.6	251.7	260.3	223.7	170.2	135.7	113.9	94.14	81.23	66.27	55.82	44.17	61.88
470.0	133.3	266.8	183.1	348.2	292.8	420.4	492.2	490.3	473.1	500.5	495.2	538.8	582.9	581.6	555.8	579.0	530.6	473.2	465.5	383.8	404.6	399.8	376.6	393.7	393.5	428.0	420.7	415.1	412.6	424.7	427.1	429.3	433.3	417.7	413.6	381.5	345.1	305.6	267.7	249.0	220.2	232.0	204.2	146.9	119.9	97.95	85.84	71.07	60.06	51.06	44.47
475.0	154.5	217.5	283.9	254.5	381.6	347.5	419.7	357.8	453.5	435.2	505.2	474.1	542.8	531.7	528.6	544.0	533.7	455.6	463.6	377.2	370.3	363.5	363.4	356.3	369.6	392.0	365.8	385.2	379.4	382.8	399.8	380.0	402.4	396.1	355.7	353.7	325.9	287.9	270.2	229.3	205.4	204.6	208.7	163.0	119.2	103.5	89.15	73.23	63.10	51.98	42.74
480.0	145.6	216.3	226.0	282.8	334.2	344.2	403.1	343.5	411.4	406.1	451.2	494.7	517.7	490.5	517.1	503.2	498.1	433.6	422.1	368.1	332.5	361.9	334.5	328.3	328.9	356.5	354.7	350.1	357.6	365.8	361.6	365.0	365.3	355.1	345.8	330.2	305.1	282.8	237.7	232.0	197.5	183.9	187.3	188.0	141.5	105.5	90.64	74.71	63.71	57.26	48.01
485.0	192.7	195.6	244.1	279.2	285.2	219.1	412.0	323.9	331.6	446.5	452.2	441.1	467.1	451.0	485.2	471.2	448.0	413.9	373.6	335.9	323.2	308.9	301.5	295.8	308.5	316.1	338.8	325.8	326.5	339.8	330.2	344.9	335.0	339.2	327.9	312.7	286.8	260.8	234.1	220.6	195.5	173.6	163.5	178.2	153.2	113.1	95.92	82.37	71.51	58.53	51.73
490.0	145.7	141.3	151.3	220.8	284.2	344.9	339.8	367.3	309.9	395.0	394.9	458.2	416.0	442.0	470.3	438.9	441.1	413.3	344.1	318.3	301.2	312.0	280.3	262.6	275.6	291.7	282.9	301.6	310.4	314.2	305.3	320.0	306.0	316.3	306.7	299.7	266.6	240.0	224.5	206.0	191.4	179.8	156.2	148.7	158.8	139.3	105.7	81.96	75.81	64.83	56.05
495.0	137.1	145.7	253.4	214.0	232.2	293.7	273.8	365.8	327.8	395.8	356.6	417.7	439.5	390.6	482.9	440.5	399.8	362.3	332.9	316.2	284.1	270.4	260.5	254.5	268.9	272.2	271.0	285.6	275.4	289.0	286.3	273.6	293.6	299.8	287.1	267.1	250.4	230.3	229.3	204.0	184.5	165.9	150.0	141.6	143.1	146.7	122.6	85.99	74.26	65.90	56.07
500.0	138.9	171.3	166.5	220.3	193.8	222.6	240.1	276.8	271.0	323.9	366.6	336.0	358.0	418.5	437.1	412.5	371.8	347.9	304.1	294.2	262.0	254.0	245.2	237.4	232.7	241.8	247.3	256.7	255.2	251.3	264.1	274.5	267.1	273.1	265.6	253.3	242.9	216.9	195.7	188.8	174.3	164.2	144.3	127.7	128.3	128.9	128.5	94.29	75.78	64.01	56.44
505.0	164.1	124.1	164.0	177.7	181.7	247.4	250.6	237.5	300.0	320.3	325.8	335.0	339.2	379.6	359.2	354.2	371.7	332.8	284.2	268.0	249.3	217.7	221.8	213.4	209.3	226.7	238.5	217.0	231.3	228.9	235.3	242.2	234.5	233.3	224.2	225.2	221.9	196.7	177.8	171.3	169.0	158.1	128.6	131.7	113.5	109.8	121.3	108.9	85.11	65.48	57.72
510.0	102.8	196.7	137.8	191.9	153.3	240.4	232.2	218.1	233.8	312.7	285.3	315.3	311.8	336.3	351.8	366.3	325.1	303.3	271.4	242.9	216.2	206.5	202.8	195.9	200.5	206.4	193.2	210.1	204.2	207.8	217.8	202.1	215.8	223.8	211.9	219.1	202.6	189.3	182.3	157.7	147.0	144.2	124.9	117.3	108.5	102.0	100.4	116.3	91.93	66.42	55.42
515.0	122.6	111.0	145.5	138.1	206.3	195.3	220.8	212.5	214.0	241.1	277.4	271.7	292.7	298.0	334.1	318.4	295.5	273.1	249.2	226.4	211.0	192.0	187.8	192.4	180.4	185.4	169.3	186.6	170.6	187.1	196.6	191.1	196.0	191.6	191.4	193.3	179.2	165.1	155.0	149.3	147.3	132.4	120.3	107.4	109.7	92.11	83.61	90.66	95.79	74.65	61.65
520.0	118.6	120.0	162.7	87.27	135.3	149.0	170.5	230.9	199.9	217.9	248.2	252.1	260.2	292.0	288.2	268.8	276.3	262.6	234.5	200.2	193.9	186.9	165.7	170.9	161.7	155.6	161.6	164.8	153.4	165.3	165.8	162.2	164.5	171.8	171.5	163.2	162.3	152.3	138.8	132.3	120.3	118.9	106.9	100.2	95.13	91.04	81.48	73.44	84.58	84.13	60.48
525.0	90.68	108.6	127.1	109.9	175.0	139.3	206.6	196.3	180.1	207.2	219.8	239.9	244.1	263.4	254.5	280.4	244.6	228.4	220.9	186.3	172.7	161.3	147.5	150.1	151.7	151.5	143.7	150.7	147.3	143.7	146.4	154.5	149.1	160.7	152.0	151.7	148.5	136.9	131.3	121.9	109.3	98.24	98.26	91.03	87.35	80.49	75.59	69.96	72.01	80.08	68.37
530.0	106.8	124.1	131.5	134.8	192.0	127.8	134.4	191.4	204.4	191.9	162.6	217.6	200.2	263.5	225.7	246.1	228.6	197.0	198.4	163.7	155.8	146.4	142.4	132.5	136.1	129.5	135.1	129.9	125.8	126.5	135.5	136.4	134.4	135.8	137.3	129.5	134.3	118.4	115.7	110.1	104.1	95.73	95.22	87.30	81.99	80.75	71.69	65.59	61.35	65.86	67.07
535.0	74.62	103.9	135.5	99.60	141.7	124.5	138.1	155.9	174.2	196.5	175.6	190.5	184.2	219.4	223.0	201.6	211.1	182.5	169.6	152.8	141.5	132.5	134.5	129.2	128.0	128.4	128.7	122.9	119.1	120.0	124.5	125.6	119.5	120.7	122.7	123.6	123.6	108.7	104.8	101.6	101.9	91.48	87.97	77.33	75.85	70.21	67.98	62.14	56.16	56.85	58.98
540.0	85.40	117.8	147.7	127.1	109.6	112.8	115.6	125.6	143.5	145.9	152.4	167.2	184.5	182.1	231.3	223.3	196.0	173.4	159.9	134.8	133.9	124.2	111.1	120.9	102.9	110.3	110.1	108.0	110.7	100.1	108.1	104.0	107.6	109.2	111.9	113.1	110.4	96.55	95.22	89.51	83.18	82.25	75.44	72.30	66.97	66.89	62.47	61.78	55.89	55.45	47.85
545.0	78.65	77.47	92.90	124.8	98.29	97.79	116.3	137.7	120.3	152.6	153.9	170.9	169.1	172.9	221.4	261.7	187.1	153.9	151.1	116.6	120.2	107.7	111.9	97.08	90.26	97.83	106.2	93.08	100.6	90.12	98.59	100.3	93.62	102.3	95.56	96.74	95.60	87.79	83.38	88.14	77.45	76.39	70.42	64.73	64.41	63.06	56.37	54.83	49.18	43.08	44.00
550.0	98.10	58.53	55.05	84.85	87.88	100.2	105.1	124.7	116.3	115.8	142.0	129.4	128.3	152.1	185.4	431.2	253.7	141.6	128.0	117.1	106.4	99.32	98.50	92.52	92.34	85.92	87.69	83.77	88.96	87.90	87.43	92.89	84.86	96.53	86.99	91.45	82.81	87.09	80.56	69.86	70.50	70.96	62.63	61.25	59.91	52.42	52.76	48.61	47.93	40.18	41.92
