Sample:	'SLABO1-5-5-320
File name:	3H9.FD3
Run Date:	17:20:42, 08/24/2022
Operator:	Administrator
Comment:	'

Instrument
Model:	F-7000 FL Spectrophotometer
Serial Number:	2354-007
ROM Version:	5J14000 06

Instrument Parameters
Measurement type:	3-D Scan
Data mode:	Fluorescence
EX  Start WL:	200.0 nm
EX  End WL:	450.0 nm
EX Sampling Interval:	5.0 nm
EM  Start WL:	280.0 nm
EM  End WL:	550.0 nm
EM Sampling Interval:	5.0 nm
Scan speed:	12000 nm/min
EX Slit:	5.0 nm
EM Slit:	5.0 nm
PMT Voltage:	700 V
Response:	Auto 
Corrected spectra:	Off
Shutter control:	On
Contour interval:	25.000

Peak integration
Integration method:	Rectangular
Sensitivity:	1
Threshold:	1.000

Peaks
No.	ApexEX/EM(nm)	Height(Data)
1	205.0/375.0	487.7
2	210.0/320.0	806.1
3	210.0/440.0	714.3
4	215.0/510.0	281.6
5	215.0/520.0	263.5
6	215.0/540.0	197.9
7	220.0/305.0	 1204
8	225.0/355.0	756.1
9	225.0/375.0	842.9
10	230.0/340.0	864.3
11	230.0/385.0	924.7
12	230.0/545.0	214.4
13	235.0/360.0	820.2
14	235.0/375.0	840.8
15	235.0/395.0	 1006
16	235.0/435.0	 1032
17	240.0/400.0	 1063
18	240.0/415.0	 1105
19	240.0/520.0	418.2
20	245.0/410.0	 1124
21	245.0/425.0	 1124
22	245.0/470.0	896.6
23	250.0/405.0	 1103
24	250.0/415.0	 1106
25	250.0/430.0	 1179
26	260.0/445.0	 1226
27	265.0/410.0	 1172
28	270.0/405.0	 1154
29	270.0/425.0	 1249
30	270.0/445.0	 1238
31	270.0/495.0	769.9
32	275.0/305.0	821.2
33	275.0/435.0	 1253
34	275.0/450.0	 1220
35	280.0/310.0	898.3
36	280.0/330.0	683.0
37	280.0/380.0	989.2
38	285.0/315.0	 1011
39	285.0/345.0	748.5
40	285.0/370.0	913.5
41	290.0/320.0	841.5
42	290.0/395.0	 1053
43	300.0/335.0	698.9
44	300.0/405.0	 1005
45	305.0/340.0	694.4
46	305.0/400.0	991.5
47	310.0/345.0	649.7
48	310.0/415.0	 1030
49	315.0/355.0	646.6
50	315.0/410.0	 1054
51	320.0/360.0	684.0
52	325.0/365.0	746.8
53	325.0/425.0	 1018
54	330.0/370.0	789.0
55	330.0/420.0	 1034
56	335.0/380.0	798.0
57	340.0/385.0	838.4
58	345.0/390.0	812.4
59	360.0/410.0	830.2
60	365.0/415.0	807.4
61	390.0/295.0	6.841
62	395.0/305.0	6.551
63	400.0/320.0	6.564
64	410.0/325.0	5.473
65	415.0/310.0	5.700
66	430.0/295.0	5.360
67	430.0/325.0	6.025
68	430.0/360.0	7.472
69	435.0/365.0	7.392
70	440.0/300.0	6.047
71	440.0/345.0	6.169
72	445.0/340.0	6.213

Data Points
	200.0	205.0	210.0	215.0	220.0	225.0	230.0	235.0	240.0	245.0	250.0	255.0	260.0	265.0	270.0	275.0	280.0	285.0	290.0	295.0	300.0	305.0	310.0	315.0	320.0	325.0	330.0	335.0	340.0	345.0	350.0	355.0	360.0	365.0	370.0	375.0	380.0	385.0	390.0	395.0	400.0	405.0	410.0	415.0	420.0	425.0	430.0	435.0	440.0	445.0	450.0
280.0	125.8	102.0	89.62	80.07	118.1	129.0	86.18	27.69	29.89	30.18	62.17	75.60	57.14	30.91	23.54	820.6	 5106	 2269	76.73	12.87	9.713	6.967	7.633	6.589	4.345	5.277	3.569	6.665	4.561	4.050	3.415	5.025	3.234	4.444	2.862	2.786	2.528	1.991	2.627	2.343	2.131	1.939	2.040	2.023	1.325	1.775	1.662	2.133	1.183	1.444	2.187
285.0	538.8	397.4	297.7	294.6	465.2	400.9	202.2	68.70	53.58	80.55	146.6	155.9	227.4	159.9	109.7	113.7	 2012	9999.9	 8024	489.2	17.29	13.66	11.00	10.48	7.489	6.342	5.230	7.625	4.789	4.347	4.439	4.606	3.136	3.593	3.885	4.426	2.685	3.460	3.995	3.367	4.217	3.249	1.986	1.591	2.169	2.278	1.953	2.390	2.718	2.749	2.819
290.0	947.3	616.2	534.0	569.2	795.0	648.5	387.5	157.9	109.2	146.0	196.1	189.9	251.9	382.7	226.7	132.9	211.1	 4506	9999.9	9999.9	651.5	26.60	15.86	11.82	12.27	5.047	6.518	5.711	4.065	4.747	3.980	5.701	4.579	5.306	4.388	4.951	4.556	3.991	3.650	4.481	4.288	3.410	2.274	3.686	2.628	3.760	3.312	4.376	3.982	4.307	3.947
295.0	 1030	870.8	692.6	933.8	 1035	964.6	577.9	285.0	179.9	198.4	216.9	231.8	280.8	398.9	553.2	296.5	166.4	400.2	 7019	9999.9	9999.9	855.8	22.61	18.91	19.03	11.75	9.231	9.472	6.519	6.046	7.021	4.899	5.396	4.423	3.502	4.170	3.534	4.284	6.841	5.112	3.976	3.206	4.498	4.912	2.998	3.394	5.360	4.027	5.136	5.379	4.926
300.0	 1143	 1092	784.8	905.3	 1158	 1067	641.0	318.9	254.5	204.3	244.8	242.3	293.0	333.7	609.2	631.7	299.3	227.8	557.6	 8605	9999.9	9999.9	885.3	29.53	21.53	17.95	15.65	10.80	8.769	6.411	5.771	6.595	4.857	4.686	5.172	5.292	4.607	5.747	6.455	4.996	5.963	4.781	3.732	4.659	3.883	4.941	5.359	5.461	6.047	5.555	4.470
305.0	 1232	 1020	750.0	962.8	 1204	 1118	726.9	477.5	271.6	217.8	263.4	312.5	304.8	327.7	447.9	821.2	675.9	313.0	217.3	632.9	 9019	9999.9	9999.9	985.0	33.37	23.32	21.18	16.33	11.76	9.079	7.691	6.463	6.133	6.370	4.531	5.726	5.361	4.392	5.072	6.551	4.162	3.805	3.590	4.056	4.779	4.790	5.034	5.506	5.749	5.646	5.161
310.0	 1103	851.4	703.0	901.6	980.0	964.0	728.4	475.0	313.7	303.6	310.2	314.2	342.7	385.1	419.6	567.6	898.3	587.3	245.3	196.4	658.3	9999.9	9999.9	9999.9	 1054	38.94	27.34	21.67	13.64	10.71	9.018	9.359	7.653	6.490	7.135	4.926	4.918	5.356	5.433	5.853	4.877	5.768	3.599	5.700	4.250	4.045	4.506	3.916	4.102	4.526	4.193
315.0	846.9	852.3	669.6	710.6	826.4	734.1	723.2	510.7	288.4	321.0	301.5	348.9	392.4	421.0	463.1	508.3	672.7	 1011	421.8	180.1	139.7	708.5	9999.9	9999.9	9999.9	919.0	39.00	28.30	21.05	15.45	12.93	10.83	9.438	7.176	8.262	6.211	5.822	4.840	4.815	4.822	4.546	5.091	3.843	4.465	2.882	3.737	4.203	3.675	4.517	3.557	4.594
320.0	686.4	752.8	806.1	667.0	738.3	738.6	735.0	554.9	379.9	315.1	344.0	361.8	403.2	414.6	516.5	547.0	592.3	729.5	841.5	319.1	154.3	162.2	718.1	9999.9	9999.9	9999.9	899.4	44.07	32.38	24.32	19.63	13.10	11.70	10.75	8.090	5.153	6.072	5.593	5.950	5.104	6.564	4.537	4.698	4.560	4.079	4.028	3.799	4.144	3.497	4.637	4.628
325.0	525.9	651.2	598.1	609.5	750.5	815.5	846.8	664.6	443.3	366.4	343.2	388.1	424.8	511.4	514.2	592.0	644.9	600.6	768.2	746.0	252.5	151.3	142.2	724.0	9999.9	9999.9	9999.9	974.1	45.72	29.95	24.12	18.74	13.06	11.67	8.403	9.197	5.314	6.098	6.185	4.728	4.247	5.255	5.473	4.811	4.232	3.584	6.025	4.598	4.293	4.666	5.132
330.0	595.2	653.3	533.9	641.3	693.5	743.9	846.4	700.7	471.3	392.9	375.2	402.6	397.2	464.2	559.5	632.6	683.0	630.0	516.3	741.6	582.2	215.1	137.6	149.9	720.5	9999.9	9999.9	9999.9	970.5	47.35	32.42	26.43	18.46	14.25	10.44	8.395	8.460	6.701	5.048	5.554	4.514	4.824	4.280	4.421	3.798	3.925	3.601	4.773	4.513	4.324	4.453
335.0	417.7	489.0	510.2	547.8	609.4	807.7	846.5	759.9	503.3	421.9	428.7	439.7	419.8	489.0	567.4	622.1	647.1	662.2	557.7	492.7	698.9	448.1	179.4	163.4	151.8	719.1	9999.9	9999.9	9999.9	 1009	53.49	41.14	24.87	24.32	15.95	10.95	8.398	8.670	6.730	6.825	5.317	4.118	4.243	4.521	4.155	4.020	3.921	4.851	4.841	4.614	3.737
340.0	416.2	525.9	502.3	575.7	706.5	748.0	864.3	672.9	582.7	433.1	414.0	433.6	457.7	510.0	553.8	677.7	677.3	717.9	584.9	479.0	460.0	694.4	360.5	173.6	143.7	150.9	725.9	9999.9	9999.9	9999.9	 1060	53.21	37.69	30.46	21.03	15.79	12.27	9.136	8.423	5.568	6.138	4.886	4.585	5.303	4.562	4.613	4.216	3.726	4.349	6.213	5.451
345.0	345.3	386.1	460.2	549.0	558.2	733.1	794.8	735.2	589.0	483.4	444.2	466.8	453.8	528.0	554.2	657.2	695.6	748.5	637.0	514.7	407.5	469.9	649.7	333.4	180.7	156.2	161.5	731.6	9999.9	9999.9	9999.9	 1142	55.77	39.21	31.24	19.24	12.51	9.868	9.393	7.548	8.294	5.009	6.276	5.220	5.105	4.602	4.124	4.233	6.169	5.104	4.567
350.0	265.3	357.3	356.8	434.2	542.9	749.6	784.5	756.2	605.2	553.7	540.7	525.9	513.8	559.7	642.9	692.3	763.6	731.3	663.4	597.0	467.2	413.8	528.6	612.9	328.9	209.4	177.0	178.4	724.8	9999.9	9999.9	9999.9	 1132	60.91	41.49	27.64	20.83	13.50	10.40	9.210	7.135	4.490	5.930	5.932	5.183	4.977	4.583	4.226	4.241	5.055	5.126
355.0	386.0	440.5	377.3	441.8	564.4	756.1	749.0	746.8	712.4	612.6	603.0	577.5	601.1	632.8	697.4	784.7	759.1	761.2	737.9	658.6	574.3	490.5	481.8	646.6	599.6	330.1	243.2	183.5	188.7	742.1	 9581	9999.9	9999.9	 1199	60.97	41.34	28.82	21.30	13.73	9.207	7.477	6.135	6.471	5.044	5.307	5.297	6.389	4.611	5.331	5.455	5.477
360.0	378.0	337.3	451.8	472.1	632.1	679.1	795.0	820.2	680.9	715.5	686.7	612.3	653.1	740.9	706.6	816.6	811.6	828.8	758.9	696.7	643.7	552.4	518.5	536.6	684.0	577.4	326.1	255.0	206.9	198.2	709.9	9999.9	9999.9	9999.9	 1103	55.34	35.07	25.24	19.63	12.67	9.394	9.441	7.599	6.289	4.249	5.098	7.472	4.939	5.342	6.348	5.416
365.0	319.5	416.6	440.9	403.3	578.7	718.2	755.9	820.0	710.4	717.1	706.4	649.7	683.8	775.0	776.6	830.3	861.7	869.0	787.7	782.7	668.7	643.2	597.8	551.6	590.4	746.8	528.9	359.0	280.6	214.8	186.2	741.6	 9884	9999.9	9999.9	 1212	53.24	39.10	26.63	19.70	12.36	10.85	8.098	7.510	6.810	4.812	4.116	7.392	4.812	4.884	3.982
370.0	308.2	305.1	377.6	516.8	609.6	792.5	804.6	818.4	813.2	785.3	725.6	699.7	765.3	811.7	842.1	889.9	888.3	913.5	832.8	782.7	725.3	703.7	695.1	659.9	615.1	663.5	789.0	518.0	357.1	277.2	212.3	191.1	726.2	9999.9	9999.9	9999.9	 1147	52.25	37.37	22.06	17.66	12.05	10.38	8.390	6.281	4.731	5.066	5.246	5.111	6.548	4.850
375.0	254.0	487.7	455.5	424.8	627.1	842.9	758.2	840.8	788.0	785.9	806.9	802.4	803.5	811.3	889.8	906.7	955.5	852.6	892.9	837.5	808.4	759.1	743.6	740.0	694.5	671.1	742.8	755.1	485.6	361.8	271.6	201.9	197.8	736.6	 9804	9999.9	9999.9	 1217	55.08	35.96	23.07	17.57	13.52	9.932	8.618	8.505	5.700	5.405	6.212	6.162	5.743
380.0	332.2	338.8	406.4	591.8	629.5	763.1	782.2	812.8	841.0	898.2	814.9	801.7	840.3	853.2	934.1	977.4	989.2	933.7	938.7	873.4	838.4	841.2	826.6	801.8	734.4	729.9	717.2	798.0	719.6	459.8	339.2	261.9	206.8	194.3	724.0	 9610	9999.9	9999.9	 1111	48.38	34.52	24.12	19.78	13.64	11.78	8.406	7.016	6.754	6.460	5.242	5.072
385.0	272.9	388.6	421.9	519.6	636.8	693.0	924.7	814.9	947.5	904.9	865.0	875.3	916.2	893.3	981.3	 1008	944.1	966.5	938.0	867.8	881.0	866.1	868.0	826.0	829.7	816.2	765.8	732.5	838.4	660.8	437.3	348.4	265.5	208.6	188.1	714.5	 8060	9999.9	9999.9	 1146	46.09	32.28	23.95	16.14	11.55	9.000	8.698	7.308	6.324	5.555	6.881
390.0	351.3	358.9	477.2	684.6	700.3	760.0	879.4	883.3	936.6	968.0	925.6	893.4	919.4	952.6	 1030	 1016	 1013	989.2	990.1	916.6	905.9	913.5	917.6	913.4	871.1	852.8	854.3	765.5	730.5	812.4	593.1	418.3	347.1	264.1	209.2	190.1	612.3	 7625	9999.9	9999.9	 1033	44.31	33.81	21.32	15.03	12.61	9.314	8.533	6.650	6.571	6.223
395.0	323.5	354.4	498.5	570.5	668.8	754.8	854.1	 1006	955.0	969.3	932.5	977.3	938.4	 1032	 1038	 1061	 1076	 1030	 1053	981.8	951.7	952.5	956.1	989.4	957.6	932.7	878.3	872.8	774.3	795.5	796.2	560.4	433.0	347.8	272.9	208.1	164.5	578.7	 7967	9999.9	9999.9	 1076	50.27	30.43	18.98	15.54	13.49	9.365	7.598	7.825	6.410
400.0	305.8	332.3	521.3	557.5	779.7	841.0	818.7	998.0	 1063	 1035	945.0	999.2	 1068	 1091	 1138	 1122	 1118	 1061	 1037	971.9	967.8	991.5	985.4	995.7	991.0	964.6	947.3	917.0	856.3	795.7	803.2	771.9	534.1	427.5	339.9	271.3	182.4	167.1	596.8	 7409	9999.9	9999.9	975.5	43.07	27.34	21.09	16.77	10.31	9.874	8.036	7.704
405.0	366.4	438.8	513.3	705.6	752.4	926.3	989.7	991.3	 1028	991.4	 1103	 1017	 1034	 1065	 1154	 1114	 1122	 1083	 1052	977.8	 1005	971.9	 1005	 1010	997.0	 1015	990.2	967.3	910.3	843.2	777.8	806.9	724.0	508.6	411.5	342.3	234.6	183.6	151.3	554.9	 6230	9999.9	9999.9	843.6	37.27	27.09	21.13	13.42	11.99	9.226	9.339
410.0	448.7	415.2	516.4	716.7	649.7	901.4	974.4	957.3	 1037	 1124	 1063	 1010	 1052	 1172	 1140	 1128	 1125	 1114	 1069	 1014	994.7	996.0	 1023	 1054	 1041	 1040	 1020	986.4	930.4	870.0	824.0	789.1	830.2	658.7	503.3	377.7	300.3	220.5	168.5	149.9	471.3	 6541	9999.9	9999.9	718.2	41.79	28.49	19.13	14.13	13.20	8.583
415.0	299.3	444.7	511.8	795.9	824.2	882.2	909.3	 1049	 1105	 1090	 1106	 1081	 1106	 1130	 1189	 1165	 1152	 1129	 1073	 1035	 1007	 1003	 1030	 1013	 1041	 1012	 1027	 1005	962.1	919.5	877.0	789.9	793.2	807.4	616.6	471.8	362.3	263.4	203.8	147.1	126.4	492.1	 6566	9999.9	9999.9	891.7	39.33	23.47	18.95	14.31	10.63
420.0	321.2	519.5	590.7	658.6	738.2	838.6	 1009	 1038	 1018	 1068	 1097	 1119	 1114	 1164	 1218	 1213	 1193	 1134	 1063	985.9	990.4	962.0	 1011	 1006	 1035	 1012	 1034	 1018	995.6	928.7	896.5	833.6	772.7	788.7	755.1	540.1	395.9	316.2	235.3	189.2	128.3	128.5	485.9	 6062	9999.9	9999.9	803.6	36.52	28.79	17.06	12.68
425.0	402.4	527.8	650.3	644.8	762.9	784.0	980.7	 1014	 1059	 1124	 1079	 1114	 1144	 1233	 1249	 1215	 1142	 1097	 1061	 1007	980.8	978.6	974.1	963.8	992.3	 1018	 1011	973.8	989.9	947.9	912.6	842.9	803.3	782.1	759.6	675.8	477.0	365.1	269.0	222.4	159.3	116.8	118.5	451.6	 5742	9999.9	9999.9	643.6	38.20	25.48	17.99
430.0	266.1	450.5	597.4	653.2	836.3	788.5	951.0	 1031	 1037	 1054	 1179	 1125	 1125	 1188	 1188	 1198	 1140	 1122	 1048	 1001	960.8	905.0	947.7	965.9	977.8	986.1	 1004	981.2	985.1	961.7	913.9	866.5	834.4	767.5	736.6	711.0	562.2	426.8	324.4	259.0	198.4	161.0	117.6	107.3	429.0	 5330	9999.9	9999.9	631.2	37.44	25.67
435.0	335.3	552.3	382.0	560.1	651.6	747.8	937.6	 1032	952.1	 1007	 1066	 1097	 1093	 1225	 1212	 1253	 1132	 1099	 1046	995.3	905.0	918.9	938.1	961.0	952.3	956.9	962.0	964.2	958.0	937.7	928.9	874.2	862.3	813.0	732.0	674.1	636.7	494.6	368.6	300.9	234.1	191.9	146.5	109.6	107.5	400.3	 5658	9999.9	9999.9	610.9	37.09
440.0	304.6	414.9	714.3	613.0	751.9	819.5	897.9	916.9	956.4	 1002	 1023	 1069	 1188	 1198	 1226	 1189	 1152	 1096	 1038	955.5	919.0	879.1	910.7	920.0	930.7	927.6	947.5	966.9	946.7	924.1	894.1	873.3	843.5	789.0	738.5	663.6	631.7	574.6	421.1	331.4	261.5	216.4	173.0	141.6	102.4	106.4	416.7	 5785	9999.9	9999.9	523.3
445.0	292.6	443.8	424.7	498.2	670.0	875.9	778.0	879.1	948.1	 1034	 1041	 1081	 1226	 1188	 1238	 1136	 1146	 1053	992.5	946.0	858.4	876.0	870.7	870.8	878.6	897.5	900.7	920.0	893.6	918.0	890.9	869.7	870.3	804.2	751.9	687.5	608.2	562.5	491.4	373.2	297.2	244.5	197.9	161.2	131.0	103.6	103.1	431.9	 5766	9999.9	9999.9
450.0	325.1	459.9	458.2	545.0	639.8	643.9	859.5	872.0	915.2	948.7	 1070	 1046	 1153	 1139	 1152	 1220	 1080	 1002	967.9	900.3	825.8	834.8	818.7	840.8	840.2	840.7	830.7	885.8	871.1	859.3	856.6	815.9	811.2	795.8	733.3	682.4	596.0	542.1	532.3	440.8	336.2	270.5	231.6	183.9	164.1	126.0	98.39	100.9	421.1	 6032	9999.9
455.0	251.6	300.1	396.9	491.9	640.6	791.4	775.8	818.0	937.9	958.5	950.1	 1003	 1033	 1134	 1132	 1125	 1045	 1025	923.6	832.9	806.0	791.6	776.3	786.7	769.7	802.8	824.4	839.0	829.3	823.7	813.7	790.9	781.6	756.4	734.8	680.3	583.0	519.7	488.2	470.9	378.9	298.1	251.5	211.5	176.5	146.7	115.5	95.21	95.99	439.1	 5400
460.0	330.8	356.4	484.0	483.1	591.8	642.4	685.2	864.0	859.5	922.7	933.2	933.6	 1062	 1077	 1128	 1136	 1042	995.4	879.6	847.7	771.6	753.2	722.2	723.3	751.0	742.3	733.7	771.3	777.9	786.5	759.3	742.1	757.3	743.6	712.2	661.0	585.3	519.8	475.0	442.7	418.9	331.4	270.9	232.0	203.2	165.7	140.2	107.4	88.51	86.83	391.2
465.0	325.0	354.8	353.5	470.3	584.1	659.8	702.0	756.6	805.1	848.9	885.2	908.8	997.0	 1067	 1080	 1069	 1013	923.4	852.1	768.4	711.1	687.4	692.8	691.7	699.7	689.9	728.0	715.4	714.8	714.4	724.0	744.2	712.7	687.6	666.9	630.6	571.2	502.2	453.1	411.0	404.5	359.0	296.6	243.3	215.3	179.5	153.2	120.6	97.39	76.77	80.99
470.0	187.9	308.1	382.4	497.1	591.6	570.7	677.2	754.2	741.9	896.6	804.2	892.7	891.6	946.0	 1001	 1016	953.2	888.5	796.9	737.4	648.1	652.8	614.5	609.2	650.3	631.8	645.0	656.4	674.1	647.8	663.5	686.8	662.7	660.5	629.4	611.8	542.4	488.9	435.6	404.4	370.7	362.2	315.9	243.7	229.6	185.8	159.6	126.8	104.0	77.39	65.62
475.0	209.9	331.1	389.9	441.3	499.4	552.2	656.4	650.0	700.9	759.2	766.4	828.2	850.6	876.4	862.1	957.9	870.6	809.7	718.9	671.8	628.8	601.2	581.6	575.7	596.8	593.7	588.3	589.4	616.2	609.8	608.0	617.2	623.2	607.1	608.5	572.4	507.0	466.2	418.6	377.3	358.5	333.2	317.6	276.8	228.6	191.0	164.1	137.4	108.6	85.76	66.91
480.0	184.2	281.5	230.2	322.4	455.7	510.7	586.0	606.3	602.0	744.1	770.1	762.0	789.4	805.7	857.2	839.8	807.1	755.2	700.8	631.5	576.0	577.4	552.6	535.1	539.0	545.4	550.9	543.4	556.6	558.4	561.4	568.7	564.6	558.8	567.0	520.4	502.7	440.0	414.4	377.5	346.2	306.6	296.5	295.8	230.8	198.9	170.0	139.9	114.1	95.95	75.87
485.0	176.5	212.0	224.2	364.2	478.9	444.7	559.0	603.5	627.6	706.7	704.9	718.2	739.7	793.1	805.7	821.0	760.6	708.8	662.9	568.9	560.8	529.3	517.8	513.6	510.9	521.9	501.3	507.6	520.7	543.5	537.2	523.8	517.2	538.2	535.9	500.1	472.0	427.2	388.8	366.4	340.6	300.3	287.2	279.9	246.9	199.6	167.9	141.8	123.1	99.74	82.19
490.0	224.8	226.2	278.9	277.0	367.6	353.7	520.2	562.4	577.5	648.2	676.8	693.4	689.0	759.8	745.7	762.5	744.5	698.5	622.2	521.4	536.4	498.5	486.3	466.0	477.4	467.5	474.6	461.2	490.4	467.6	499.1	486.6	500.3	507.7	495.8	464.4	438.9	411.4	368.0	345.5	315.6	289.9	270.5	259.8	252.5	224.6	177.3	153.1	121.6	109.4	90.36
495.0	230.3	253.5	307.6	378.6	390.8	403.2	434.1	457.8	526.0	576.9	583.8	626.8	682.7	676.5	769.9	720.6	676.9	652.5	590.6	495.4	497.3	456.5	449.6	427.3	434.4	426.4	438.4	436.9	441.6	450.6	445.1	439.3	475.2	458.4	442.3	431.3	412.9	388.4	348.8	332.9	308.9	279.1	255.6	241.2	232.9	234.8	184.5	150.8	130.3	105.3	91.21
500.0	210.0	224.7	257.9	252.5	331.3	346.8	427.8	445.9	475.4	516.1	558.8	596.9	655.2	681.5	726.7	700.2	621.4	594.2	536.3	489.0	435.7	431.1	435.1	410.6	416.5	411.7	406.3	406.2	414.9	416.8	415.3	413.8	422.9	427.2	414.9	417.3	386.8	361.1	325.7	307.5	281.0	272.8	248.4	223.2	210.2	217.3	196.8	163.5	132.6	113.2	100.8
505.0	133.2	191.7	185.4	264.1	229.9	357.6	375.5	439.0	480.1	494.1	540.9	547.3	611.0	626.5	640.7	628.2	564.8	542.3	492.6	430.4	410.6	393.3	390.4	378.6	372.8	363.6	369.4	372.9	370.3	382.7	375.7	377.6	385.4	381.0	399.8	389.4	350.0	321.3	309.9	288.6	272.4	243.6	234.8	216.9	203.4	187.8	192.1	165.6	132.2	111.4	102.9
510.0	175.4	143.2	234.1	281.6	261.2	293.0	394.3	422.7	420.6	452.6	508.1	524.4	528.4	610.8	581.0	566.9	583.3	504.6	454.0	397.2	381.3	351.3	347.7	342.4	334.4	320.4	329.0	339.1	329.7	348.9	322.4	339.7	347.5	352.2	347.3	337.8	328.5	301.8	283.2	269.0	244.4	229.3	217.6	213.7	185.4	176.5	165.2	169.8	144.8	109.1	93.92
515.0	124.4	181.2	178.3	212.0	229.3	334.7	340.7	358.1	394.5	387.2	427.0	495.2	513.1	500.3	561.5	530.2	491.2	442.4	408.0	373.0	348.9	334.2	328.2	309.6	287.8	297.7	292.5	299.1	292.5	298.5	291.9	328.5	325.9	318.9	324.0	326.2	304.4	291.1	253.1	254.1	222.8	219.5	204.1	190.7	172.5	157.2	148.0	150.8	147.2	121.3	90.22
520.0	100.8	174.4	198.4	263.5	240.9	268.2	348.0	337.4	418.2	339.5	390.6	395.2	481.2	457.8	477.2	490.9	452.9	433.1	380.3	366.5	317.4	312.5	288.2	282.4	276.5	270.0	262.6	267.8	274.6	268.1	284.0	282.9	282.4	296.1	285.6	284.9	269.9	247.6	242.0	223.4	215.7	198.8	183.9	175.5	165.2	149.6	137.3	127.7	135.4	123.6	98.29
525.0	93.71	265.3	148.5	219.3	222.5	244.9	305.5	321.3	326.1	359.8	361.4	395.7	412.3	432.2	430.3	451.5	396.3	385.0	332.1	315.6	299.2	280.7	267.6	240.6	242.9	258.9	242.4	255.2	243.0	247.9	248.0	243.9	264.2	256.1	267.3	259.1	243.6	232.0	224.0	202.1	198.4	183.5	175.5	164.4	153.1	139.2	125.9	123.0	116.3	117.1	106.3
530.0	130.7	140.8	150.3	182.9	200.3	202.8	238.0	280.9	290.7	313.3	294.6	358.0	363.5	406.5	406.9	394.7	390.0	335.1	312.0	296.0	270.1	248.9	225.1	234.8	214.3	230.9	215.3	216.3	221.2	235.6	222.7	219.7	236.0	237.9	233.9	233.1	220.0	211.1	199.8	190.4	176.3	173.3	163.4	151.2	137.3	132.0	115.5	107.8	102.9	97.34	102.8
535.0	86.79	102.3	133.0	150.2	162.1	208.6	254.9	268.8	242.4	292.2	284.1	293.3	313.1	346.4	376.6	370.7	342.2	337.9	277.3	260.9	237.3	231.7	215.4	217.4	195.1	196.4	177.2	195.9	200.8	193.5	200.1	209.5	213.8	210.7	209.4	189.2	202.6	190.3	168.8	170.1	156.8	149.4	143.9	132.4	125.7	117.9	110.3	99.18	95.36	91.71	89.26
540.0	101.5	115.2	147.6	197.9	187.1	183.6	185.5	219.5	223.2	256.5	278.2	289.1	274.5	303.3	365.5	365.2	306.4	283.3	264.8	236.6	212.5	206.4	193.9	184.9	181.9	174.6	184.4	163.9	166.3	170.1	170.1	177.2	187.4	192.5	182.5	169.1	172.3	162.2	167.4	152.9	143.8	139.7	129.1	118.3	111.2	107.2	97.60	87.21	92.01	82.15	81.22
545.0	87.48	174.2	96.97	130.9	183.7	126.3	214.4	208.6	200.8	260.0	213.1	253.2	275.5	291.2	335.4	389.7	296.1	259.2	228.9	211.0	176.8	181.7	169.8	167.2	168.9	153.0	157.8	154.8	156.0	152.8	161.9	150.2	160.2	168.7	162.3	153.5	151.0	143.2	138.7	132.6	128.4	120.5	117.2	107.6	96.18	99.10	93.22	83.66	75.99	72.26	69.62
550.0	81.19	113.6	108.3	95.06	158.3	138.2	193.7	154.1	227.0	223.1	214.4	223.8	243.2	278.9	269.7	460.3	343.8	232.3	217.7	193.3	185.3	176.7	164.3	162.5	153.2	145.8	139.9	141.9	139.0	136.5	137.2	146.5	148.8	142.2	154.1	139.9	131.1	138.7	126.6	120.5	116.6	108.2	100.9	99.17	98.13	85.18	83.52	76.75	78.39	69.94	64.51
