Sample:	'SLABO1-5-5-320
File name:	3N10.FD3
Run Date:	15:42:34, 08/24/2022
Operator:	Administrator
Comment:	'

Instrument
Model:	F-7000 FL Spectrophotometer
Serial Number:	2354-007
ROM Version:	5J14000 06

Instrument Parameters
Measurement type:	3-D Scan
Data mode:	Fluorescence
EX  Start WL:	200.0 nm
EX  End WL:	450.0 nm
EX Sampling Interval:	5.0 nm
EM  Start WL:	280.0 nm
EM  End WL:	550.0 nm
EM Sampling Interval:	5.0 nm
Scan speed:	12000 nm/min
EX Slit:	5.0 nm
EM Slit:	5.0 nm
PMT Voltage:	700 V
Response:	Auto 
Corrected spectra:	Off
Shutter control:	On
Contour interval:	25.000

Peak integration
Integration method:	Rectangular
Sensitivity:	1
Threshold:	1.000

Peaks
No.	ApexEX/EM(nm)	Height(Data)
1	205.0/510.0	195.5
2	210.0/515.0	171.9
3	215.0/320.0	400.4
4	220.0/300.0	438.1
5	220.0/545.0	148.6
6	225.0/305.0	471.7
7	225.0/435.0	698.0
8	225.0/480.0	405.1
9	225.0/520.0	234.0
10	225.0/540.0	182.1
11	230.0/350.0	728.6
12	235.0/370.0	756.9
13	235.0/385.0	821.7
14	235.0/410.0	846.5
15	235.0/515.0	326.8
16	240.0/440.0	825.8
17	240.0/540.0	233.3
18	245.0/315.0	183.8
19	245.0/365.0	662.5
20	245.0/410.0	894.7
21	245.0/425.0	878.4
22	245.0/455.0	755.7
23	245.0/520.0	338.1
24	250.0/395.0	831.8
25	250.0/415.0	885.4
26	255.0/305.0	188.2
27	255.0/425.0	880.2
28	260.0/445.0	899.1
29	265.0/290.0	301.8
30	265.0/410.0	894.5
31	270.0/430.0	915.5
32	270.0/450.0	878.4
33	275.0/305.0	638.9
34	275.0/365.0	651.0
35	275.0/405.0	884.2
36	275.0/420.0	907.2
37	275.0/445.0	899.7
38	280.0/310.0	747.7
39	285.0/315.0	787.2
40	285.0/435.0	839.9
41	290.0/320.0	690.4
42	295.0/330.0	594.1
43	300.0/335.0	610.3
44	300.0/395.0	709.3
45	305.0/340.0	587.3
46	305.0/410.0	720.0
47	310.0/345.0	588.6
48	310.0/405.0	738.5
49	310.0/415.0	718.2
50	310.0/430.0	686.5
51	315.0/350.0	555.3
52	320.0/360.0	577.4
53	320.0/425.0	721.9
54	325.0/365.0	621.1
55	325.0/415.0	728.3
56	330.0/370.0	643.1
57	330.0/405.0	727.1
58	330.0/425.0	725.4
59	335.0/375.0	653.2
60	335.0/420.0	713.3
61	340.0/385.0	649.2
62	340.0/430.0	692.1
63	345.0/390.0	645.0
64	355.0/405.0	607.9
65	360.0/410.0	631.9
66	365.0/415.0	616.0
67	370.0/425.0	576.3
68	375.0/430.0	533.1
69	385.0/310.0	3.162
70	395.0/295.0	3.618
71	405.0/310.0	3.577
72	420.0/490.0	175.9
73	425.0/495.0	161.7
74	430.0/350.0	4.264
75	440.0/330.0	3.100
76	440.0/360.0	3.681
77	440.0/515.0	106.2
78	445.0/340.0	4.206
79	445.0/520.0	94.41

Data Points
	200.0	205.0	210.0	215.0	220.0	225.0	230.0	235.0	240.0	245.0	250.0	255.0	260.0	265.0	270.0	275.0	280.0	285.0	290.0	295.0	300.0	305.0	310.0	315.0	320.0	325.0	330.0	335.0	340.0	345.0	350.0	355.0	360.0	365.0	370.0	375.0	380.0	385.0	390.0	395.0	400.0	405.0	410.0	415.0	420.0	425.0	430.0	435.0	440.0	445.0	450.0
280.0	42.43	28.80	25.20	35.75	48.16	36.05	34.98	8.982	17.12	30.24	47.84	64.24	50.35	15.68	8.426	433.6	 2935	 1188	34.22	7.460	6.186	4.348	6.220	2.544	2.576	2.902	3.272	1.211	2.153	1.723	1.436	1.728	1.502	1.716	1.572	1.824	1.173	0.738	1.014	1.108	1.312	0.889	0.678	1.339	0.820	0.512	0.969	0.643	1.002	0.759	0.763
285.0	130.0	119.6	95.01	75.74	104.3	118.4	76.37	44.71	29.94	68.72	101.0	110.1	173.5	105.3	33.83	55.10	 1169	 6879	 4205	270.9	9.711	7.821	8.255	3.565	4.442	3.619	3.271	2.568	1.861	1.695	2.374	1.476	1.016	1.540	1.945	1.261	1.533	0.644	1.213	1.228	1.628	1.490	0.933	1.167	1.340	1.025	1.126	1.422	1.325	0.990	1.125
290.0	307.0	176.7	173.2	205.4	208.5	224.9	154.3	77.63	71.57	108.6	150.7	130.2	179.0	301.8	147.9	71.83	124.3	 2264	9999.9	 6992	399.0	7.919	12.29	7.065	5.623	3.720	3.595	2.282	2.916	1.763	2.069	2.374	2.110	2.026	1.809	1.931	1.331	1.735	1.206	1.840	1.040	1.084	1.131	1.779	1.319	1.524	1.033	1.255	1.189	1.154	1.172
295.0	476.7	219.9	331.4	284.9	344.7	351.4	229.4	135.2	89.54	122.3	165.8	138.5	142.4	264.1	403.0	177.0	102.9	215.8	 3656	9999.9	 9477	470.9	17.15	10.72	7.205	7.343	5.651	3.958	3.060	3.010	3.631	2.486	2.454	1.930	2.264	2.627	2.144	1.061	1.489	3.618	2.189	2.411	1.677	1.476	1.297	2.115	1.451	1.412	2.113	1.762	1.098
300.0	492.8	464.4	341.9	251.0	438.1	336.9	268.5	141.2	127.1	117.8	169.5	148.4	135.4	152.0	458.1	487.1	213.2	123.5	314.1	 4703	9999.9	9999.9	539.1	17.24	15.08	8.089	6.979	4.757	3.830	4.688	2.615	2.963	1.866	2.477	1.673	2.613	1.800	2.418	1.644	2.795	2.536	2.727	2.387	1.532	2.440	2.268	1.876	1.439	2.321	2.362	2.044
305.0	438.9	419.6	330.4	349.8	372.7	471.7	283.7	178.5	132.1	119.5	179.0	188.2	170.0	167.0	275.4	638.9	505.6	212.3	131.7	358.9	 4897	9999.9	9999.9	615.9	20.73	11.87	10.11	7.754	3.947	3.785	4.777	3.208	2.091	2.313	2.596	2.224	2.189	1.793	2.952	2.237	2.422	2.487	1.565	2.021	2.298	2.330	1.950	2.165	2.493	2.391	2.348
310.0	437.0	404.3	348.4	326.4	350.4	384.8	322.1	183.2	157.2	155.6	149.4	168.1	167.7	207.7	243.8	365.1	747.7	436.2	158.1	103.5	359.0	 5711	9999.9	9999.9	615.8	17.95	12.95	8.701	6.566	4.571	4.103	4.920	3.322	3.858	2.142	3.246	1.735	3.162	2.572	2.272	1.989	3.577	2.054	2.811	1.478	1.572	2.332	1.625	2.465	1.776	1.784
315.0	328.2	407.8	292.6	364.6	372.5	414.2	340.3	207.9	166.5	183.8	165.2	180.4	195.2	208.1	273.6	294.7	455.6	787.2	323.5	115.5	96.26	410.6	 7805	9999.9	9999.9	558.7	18.58	13.72	9.467	8.041	6.460	5.858	2.433	4.632	3.212	3.050	2.881	2.082	2.958	2.879	2.712	2.415	2.443	2.400	1.527	2.442	2.172	2.073	1.778	1.969	1.769
320.0	284.0	394.4	381.0	400.4	331.0	404.4	319.5	329.9	172.4	158.7	212.0	202.6	219.3	285.6	289.1	323.4	360.4	515.1	690.4	228.5	98.86	108.5	553.9	 6403	9999.9	9999.9	522.6	18.60	11.49	9.331	6.601	5.321	4.631	4.443	4.614	4.675	3.553	3.321	1.710	2.247	2.449	2.188	2.240	1.720	2.243	1.579	2.081	2.763	2.077	2.527	2.626
325.0	283.7	317.0	264.8	332.1	479.9	445.5	523.0	347.3	269.2	238.0	227.4	245.9	251.5	280.8	325.8	393.9	386.9	354.8	561.9	572.2	196.2	117.0	117.9	474.3	 7915	9999.9	9999.9	532.1	20.68	13.35	11.43	8.338	6.544	5.057	4.135	4.158	2.943	2.294	2.422	3.083	1.984	2.098	2.671	2.370	1.678	1.747	2.912	2.859	3.065	2.950	2.906
330.0	271.0	398.2	275.3	335.8	422.2	530.7	520.0	451.4	329.8	247.0	242.8	257.1	251.7	302.1	333.1	396.9	413.7	387.6	377.0	594.1	498.7	163.4	116.8	114.1	568.2	 5095	9999.9	9999.9	535.5	18.66	15.29	8.662	7.763	5.865	5.474	4.678	4.467	3.240	2.354	2.772	1.850	2.160	3.067	2.087	2.165	1.703	2.279	2.833	3.100	2.530	2.899
335.0	244.1	320.8	273.4	323.1	408.6	635.7	622.7	541.5	371.9	282.9	285.7	277.3	279.8	311.1	393.3	419.7	421.9	399.1	353.1	327.6	610.3	410.3	147.3	116.0	115.0	385.2	 6150	9999.9	9999.9	530.1	21.45	15.93	11.61	7.920	7.172	5.557	3.187	2.503	3.283	2.464	2.538	3.053	2.738	2.595	2.507	2.911	1.922	2.725	1.816	2.858	2.615
340.0	271.5	260.9	290.1	364.7	468.6	640.8	658.8	606.4	447.2	356.9	294.4	294.5	324.7	341.9	398.8	458.6	434.5	480.7	416.6	335.6	356.8	587.3	324.6	147.7	106.6	104.4	455.6	 5112	9999.9	9999.9	577.4	20.36	15.68	13.07	8.379	7.187	5.406	4.406	3.181	3.903	3.675	2.581	2.426	1.995	2.321	3.461	2.068	2.353	2.705	4.206	3.179
345.0	271.1	328.4	297.1	352.9	484.0	575.3	710.8	650.3	502.8	378.5	357.3	339.9	330.4	361.0	414.9	456.3	461.2	510.4	441.7	376.7	327.4	400.9	588.6	267.7	155.6	116.2	111.3	389.5	 5043	9999.9	9999.9	586.3	22.22	16.25	11.94	11.71	7.556	3.956	3.434	3.035	3.160	2.707	2.218	2.259	2.254	3.284	3.055	3.174	3.025	3.728	3.240
350.0	255.7	229.1	250.7	380.6	454.2	570.2	728.6	709.8	579.9	490.2	409.5	386.8	360.6	399.5	460.7	499.0	467.5	495.9	471.0	430.8	365.0	325.7	467.8	555.3	258.0	163.5	134.1	122.8	398.8	 4624	9999.9	9999.9	608.1	25.55	16.42	12.83	12.33	6.394	4.881	4.376	2.982	2.583	2.393	2.670	2.177	2.575	4.264	2.779	2.796	2.911	3.537
355.0	182.3	209.5	333.8	394.3	432.9	560.0	695.0	604.6	611.9	520.0	469.7	461.2	462.4	471.0	490.8	509.0	542.4	574.1	517.1	485.9	419.6	377.4	393.0	521.1	505.7	249.0	183.8	155.9	131.9	379.2	 4386	9999.9	9999.9	626.4	24.53	16.83	14.19	8.400	7.202	4.556	3.273	3.007	3.585	2.304	2.149	2.816	3.145	1.841	3.199	2.726	3.242
360.0	146.8	248.0	294.8	436.7	472.5	545.3	709.1	669.1	616.3	594.0	487.9	522.4	515.0	521.6	524.8	558.2	579.9	571.9	581.8	535.8	463.3	434.5	399.5	402.7	577.4	476.0	264.3	192.8	173.5	129.2	362.1	 4550	9999.9	9999.9	560.9	29.50	18.38	10.85	8.374	4.618	4.738	3.802	2.730	3.019	3.076	2.968	2.783	1.815	3.681	3.012	3.067
365.0	143.0	215.3	289.4	358.0	538.8	545.8	633.2	696.0	626.0	662.5	603.5	573.6	570.6	594.0	591.8	651.0	597.0	611.5	594.7	534.6	514.9	476.3	471.0	436.7	462.7	621.1	442.3	285.2	216.2	164.6	139.3	377.5	 4474	9999.9	9999.9	614.5	26.71	16.05	10.57	8.319	5.694	4.784	3.763	2.612	2.178	2.611	3.388	2.809	2.406	3.840	2.779
370.0	151.0	222.5	327.7	397.9	461.5	625.4	659.7	756.9	726.2	662.3	625.0	597.8	577.5	620.3	623.1	650.3	685.7	665.3	623.3	606.4	552.6	532.7	504.9	476.3	466.5	508.2	643.1	421.9	273.7	220.3	172.5	131.6	368.7	 4459	9999.9	9999.9	598.8	21.96	15.58	9.398	7.963	4.739	5.723	3.109	3.011	3.713	2.728	2.536	2.825	3.763	3.851
375.0	187.6	268.2	311.1	402.0	419.4	600.8	646.1	743.4	725.6	654.8	644.8	665.0	700.6	664.1	697.7	639.5	700.9	693.7	668.0	619.0	603.0	592.6	577.6	563.7	530.4	533.3	595.0	653.2	377.6	280.0	204.4	157.9	127.4	355.8	 4408	9999.9	9999.9	552.9	21.26	15.18	8.746	7.483	6.722	3.289	2.848	4.199	2.968	2.450	3.526	4.080	2.698
380.0	169.2	244.9	386.7	352.0	440.0	593.8	683.8	745.1	753.9	709.2	724.4	726.2	696.8	678.1	714.6	730.1	751.1	723.9	649.2	620.9	619.7	603.1	607.0	608.4	574.8	567.2	536.8	625.1	577.7	350.7	265.7	203.2	152.6	128.8	357.8	 5182	9999.9	9999.9	513.3	21.38	14.72	10.48	6.475	6.286	5.156	3.357	3.260	3.042	3.833	3.821	4.594
385.0	171.5	265.1	302.3	449.9	404.6	576.6	730.0	821.7	796.8	739.7	698.7	730.1	731.2	722.6	779.0	764.7	749.5	730.3	728.5	681.8	641.9	631.5	657.1	633.9	608.7	597.0	588.4	557.2	649.2	514.3	329.9	247.4	179.5	155.3	122.7	404.0	 4807	9999.9	9999.9	502.9	23.05	14.96	9.696	7.218	5.584	4.636	4.415	3.806	2.918	4.008	2.594
390.0	201.9	233.9	333.8	346.8	517.2	572.9	724.8	791.7	744.3	827.1	789.7	780.3	751.8	754.3	799.6	801.0	782.8	753.6	729.2	672.0	667.1	680.0	659.7	647.2	679.0	620.9	606.8	572.5	581.5	645.0	461.1	318.0	247.8	188.4	143.5	135.3	374.8	 3480	9999.9	9999.9	477.1	21.93	13.42	8.523	6.330	5.791	4.900	3.544	3.944	4.461	3.230
395.0	247.8	245.4	312.7	474.6	486.5	667.5	717.6	780.1	823.1	810.3	831.8	774.1	761.1	797.1	772.9	842.4	810.4	795.1	754.0	681.7	709.3	680.0	676.9	691.0	666.7	662.2	647.0	610.7	571.0	616.1	614.9	420.2	313.9	250.5	189.8	146.7	123.3	290.2	 3587	9999.9	9999.9	502.7	16.96	12.59	9.436	7.990	6.733	4.237	4.233	4.319	3.733
400.0	225.3	289.1	363.2	454.3	560.9	632.3	698.1	803.4	807.1	838.0	786.4	837.6	799.9	776.9	803.3	859.3	836.3	790.7	753.5	733.0	688.0	710.3	674.4	704.8	713.4	695.9	699.7	641.2	606.9	580.3	608.9	586.8	395.9	309.5	254.1	198.3	143.6	111.1	294.0	 3410	9999.9	9999.9	424.1	19.03	9.945	11.04	9.766	5.371	4.177	3.731	4.343
405.0	132.3	260.5	400.6	434.8	563.5	767.8	739.3	816.3	845.2	857.8	882.0	863.9	841.7	821.1	870.7	884.2	848.7	819.0	799.8	756.8	703.8	719.4	738.5	728.0	722.4	704.9	727.1	691.7	641.1	602.4	574.2	607.9	540.4	382.0	304.8	243.2	188.3	130.9	111.2	280.8	 3125	9999.9	9999.9	366.9	14.92	12.82	10.03	6.498	5.901	4.384	4.069
410.0	245.4	322.3	381.8	424.8	542.5	657.1	783.5	846.5	796.9	894.7	874.9	809.8	853.4	894.5	880.0	880.7	852.7	810.0	802.4	733.0	700.4	720.0	691.5	721.3	711.9	712.3	709.1	704.5	663.3	626.6	587.8	562.0	631.9	496.3	356.3	281.0	226.2	172.7	119.5	102.0	261.5	 3033	9999.9	 9865	330.8	19.39	12.07	8.063	6.905	5.334	4.398
415.0	195.4	364.0	371.5	463.2	615.6	643.6	782.2	788.8	845.5	865.2	885.4	872.4	862.3	840.1	843.4	857.6	855.1	842.4	778.4	727.7	715.7	704.9	718.2	710.1	721.0	728.3	706.5	708.5	686.4	636.4	599.2	564.9	571.0	616.0	450.7	323.2	252.7	198.5	150.6	105.1	89.65	249.3	 3357	9999.9	 8527	385.1	15.86	9.606	7.964	5.612	5.122
420.0	158.6	298.8	381.7	514.8	565.3	645.9	721.7	814.7	806.1	842.9	871.6	851.2	846.8	898.2	881.8	907.2	844.5	847.7	761.8	741.1	706.0	695.2	676.3	706.9	715.0	708.7	704.9	713.3	698.3	661.2	619.8	587.0	551.8	583.5	567.9	399.6	285.1	228.6	181.2	126.6	88.26	84.76	263.0	 2836	9999.9	9999.9	293.8	14.11	10.44	8.546	6.363
425.0	207.1	365.6	336.9	448.6	575.9	607.7	729.8	765.6	875.3	878.4	841.4	880.2	804.8	901.8	914.2	896.8	842.2	801.9	780.4	709.5	682.8	661.9	654.1	681.8	721.9	702.7	725.4	700.9	683.2	656.1	652.4	619.2	567.5	534.1	576.3	504.9	328.7	262.0	201.7	153.2	116.0	84.68	75.06	228.3	 2605	9999.9	 8685	249.1	13.77	9.071	6.951
430.0	182.8	305.6	444.6	500.5	524.6	651.0	689.4	729.3	846.7	802.7	832.8	878.7	887.8	910.0	915.5	913.1	862.8	817.1	784.1	728.4	691.4	649.6	686.5	676.2	695.2	691.8	672.7	690.8	692.1	653.6	647.9	621.5	575.8	558.1	493.1	533.1	416.9	302.4	227.6	182.0	139.9	104.3	79.09	70.23	203.1	 3030	9999.9	 7629	239.1	14.18	9.821
435.0	245.5	314.7	355.1	486.9	530.4	698.0	621.0	676.6	775.5	805.7	773.0	874.2	851.3	908.3	884.3	857.9	810.4	839.9	773.4	726.3	656.8	636.3	654.6	654.7	648.2	674.4	672.0	675.7	678.1	661.7	635.9	616.1	590.5	549.8	512.1	487.9	478.5	351.0	251.0	201.9	160.4	125.8	91.38	73.84	66.06	233.8	 2723	9999.9	 7415	214.4	14.27
440.0	223.6	302.1	343.0	444.3	541.1	604.6	625.6	696.9	825.8	739.8	799.2	851.8	883.5	886.2	873.2	866.2	828.8	780.5	737.3	676.3	629.6	639.6	617.3	613.2	617.4	637.3	655.5	645.9	661.0	639.4	620.5	618.0	604.6	570.8	520.4	460.5	449.0	421.1	293.2	231.7	181.3	140.3	109.7	85.69	70.58	66.30	210.1	 2388	9999.9	 7031	210.6
445.0	198.2	288.6	378.5	405.7	502.1	586.4	669.8	697.8	784.9	749.5	785.1	832.4	899.1	814.8	851.3	899.7	822.5	757.5	720.7	694.4	610.4	578.3	601.0	583.1	610.5	604.2	600.8	634.8	628.9	629.8	585.9	569.0	596.1	553.3	506.8	474.3	408.2	406.0	353.9	254.4	196.0	155.3	125.9	98.54	81.31	61.48	62.49	189.5	 2621	9999.9	 6252
450.0	239.9	297.0	391.3	425.8	381.5	540.0	640.0	639.5	697.2	723.5	736.6	799.9	834.3	818.8	878.4	829.8	778.4	751.6	677.6	648.3	582.8	593.8	575.5	588.4	568.1	575.9	578.6	588.1	592.5	580.7	570.8	573.1	566.8	546.6	502.1	455.6	405.8	356.1	374.4	306.6	212.3	176.8	145.7	122.0	91.36	74.05	63.02	56.70	202.5	 2467	9999.9
455.0	282.2	249.2	308.4	431.9	472.0	485.8	578.4	642.5	715.4	755.7	716.3	767.9	804.4	819.7	833.6	812.4	798.7	757.7	681.2	621.8	587.1	546.4	547.7	551.6	533.7	532.9	546.3	551.9	556.5	552.6	548.1	535.1	541.5	521.1	511.0	466.2	399.2	355.4	330.8	326.6	255.2	192.3	160.5	122.8	107.6	86.43	70.16	57.84	55.21	191.8	 2342
460.0	195.9	201.5	305.9	296.2	400.6	559.0	564.6	604.4	614.7	682.5	717.6	693.8	733.9	810.5	813.6	780.3	735.1	680.7	645.5	587.7	535.5	518.2	498.4	503.2	499.8	512.0	506.4	527.5	510.9	526.9	521.5	504.8	511.1	507.3	474.6	427.3	401.0	354.2	313.4	302.7	288.9	210.2	159.9	144.7	119.1	94.89	77.87	66.39	57.46	52.48	178.0
465.0	166.8	231.9	206.9	299.8	370.4	469.1	472.5	568.1	625.1	626.6	661.0	679.0	691.1	758.4	747.3	722.2	722.5	639.7	605.2	552.2	516.4	494.4	492.5	479.3	468.8	480.9	485.7	473.1	480.6	472.4	466.5	497.9	471.3	481.8	448.4	424.4	395.9	346.6	299.7	278.8	259.6	258.7	182.3	149.9	124.9	100.8	84.69	77.48	59.96	47.20	48.27
470.0	131.1	220.5	258.3	295.9	326.5	415.3	480.3	527.2	554.5	626.1	650.4	642.2	660.9	666.8	705.7	681.5	678.5	607.3	549.7	507.1	482.3	458.8	459.3	428.2	438.2	439.5	446.8	452.4	451.1	447.3	455.8	438.1	451.5	450.5	429.3	415.1	375.9	326.8	299.6	256.7	236.1	258.5	203.4	161.0	136.5	116.0	91.71	77.91	65.79	55.84	45.02
475.0	143.4	220.6	153.9	316.8	294.2	389.5	390.5	427.8	529.1	534.1	576.0	621.0	652.5	656.1	667.9	657.1	604.2	614.0	538.4	472.3	439.4	419.0	404.0	418.9	395.9	393.9	415.0	408.8	414.1	422.9	417.1	416.8	416.9	426.7	395.5	381.4	346.3	325.8	282.2	259.7	225.7	219.9	217.8	186.8	135.6	117.3	95.27	82.71	73.51	59.37	50.98
480.0	173.6	165.8	187.0	295.9	314.2	405.1	368.0	404.5	470.0	520.0	546.4	554.6	579.3	637.7	640.3	621.5	578.7	546.2	519.4	447.0	408.9	392.6	372.4	383.2	363.5	369.2	368.3	373.0	380.3	392.6	394.5	379.0	381.3	378.6	386.4	358.7	327.3	298.8	277.3	240.5	219.0	207.2	204.5	200.1	153.0	119.5	103.9	91.32	74.08	62.58	55.74
485.0	126.3	194.7	226.4	275.8	351.4	383.8	388.3	402.9	467.5	489.1	523.3	547.5	567.0	583.1	599.4	573.7	522.3	524.0	433.2	411.4	410.5	360.8	359.9	344.0	343.2	348.9	358.0	345.9	349.1	353.6	353.0	353.9	365.5	361.3	349.1	337.4	310.5	280.8	258.0	233.0	208.4	192.8	181.1	189.3	170.9	133.4	108.3	97.39	84.75	72.01	60.08
490.0	152.8	163.1	243.6	226.2	331.7	326.0	376.6	444.2	451.6	473.2	492.9	510.2	541.5	544.8	556.2	575.2	554.0	497.7	433.0	394.2	358.3	362.5	363.1	336.8	309.8	317.0	332.3	318.6	334.7	318.6	333.5	332.3	334.4	349.6	314.3	316.5	289.8	264.4	248.6	227.7	205.3	190.6	176.9	168.4	175.9	154.5	115.3	93.14	87.83	75.80	62.37
495.0	130.7	159.6	208.3	216.7	227.6	292.4	316.1	331.5	399.1	393.9	469.1	486.8	542.1	529.1	528.5	517.9	509.3	483.7	427.5	395.6	353.7	342.5	314.9	317.5	291.6	297.7	311.7	298.0	304.4	296.5	301.2	299.6	318.6	309.2	321.5	292.3	281.5	253.2	241.1	224.7	198.8	182.2	165.3	153.2	153.2	161.7	124.4	97.62	88.86	75.92	66.14
500.0	120.2	108.7	156.3	253.3	311.9	299.4	348.5	348.3	404.9	388.5	441.6	436.9	481.1	498.7	535.1	491.4	491.7	447.6	390.9	355.9	327.2	325.8	288.9	273.5	274.6	278.2	276.8	283.0	260.8	275.0	282.8	278.8	292.5	282.1	288.3	278.5	260.1	232.8	227.1	208.4	196.1	175.4	163.5	146.0	137.7	145.8	143.8	109.4	93.89	76.03	72.54
505.0	112.4	130.1	209.8	218.7	218.2	212.9	291.9	281.4	323.5	385.2	429.2	424.1	443.1	473.3	488.1	472.9	429.2	394.9	354.8	331.0	300.8	280.4	268.5	263.3	273.8	241.1	257.6	260.2	247.4	255.5	261.5	263.5	263.2	257.6	259.8	258.2	240.2	220.1	209.3	195.6	179.8	168.9	150.7	141.9	131.7	128.5	137.7	123.7	94.92	80.01	68.54
510.0	111.8	195.5	136.3	137.5	227.5	244.9	271.9	315.9	336.0	323.3	386.4	371.1	401.5	434.4	436.4	461.2	450.2	367.2	335.6	302.4	257.3	260.0	243.9	230.8	243.0	237.3	231.7	227.0	236.0	225.3	232.3	233.8	234.2	237.8	250.5	236.0	212.4	200.8	189.8	173.8	165.1	154.0	142.1	126.3	122.5	112.8	116.1	123.3	103.8	88.16	68.18
515.0	129.3	131.2	171.9	130.8	191.7	204.9	231.1	326.8	249.0	292.3	329.0	334.3	357.2	387.2	410.5	406.9	409.0	350.6	313.7	282.2	255.9	248.7	237.6	224.4	212.5	218.6	195.8	188.5	206.4	211.1	203.8	224.7	214.5	218.8	225.4	202.6	192.0	192.4	179.8	160.8	152.0	153.2	137.8	121.3	111.1	102.0	100.8	103.4	106.2	88.02	70.50
520.0	87.23	91.78	157.1	141.9	144.4	234.0	206.5	248.4	266.9	338.1	300.9	339.8	338.0	356.4	362.3	356.9	365.1	314.4	283.9	264.0	241.9	220.6	211.4	189.2	191.0	193.5	186.6	185.1	183.7	180.3	188.5	186.7	179.8	192.0	198.8	187.9	176.0	166.6	148.3	138.9	141.6	132.9	120.9	112.3	107.9	102.3	90.21	87.24	92.36	94.41	70.87
525.0	90.02	99.30	82.96	120.7	145.8	198.7	205.4	269.5	240.8	254.5	270.7	291.4	300.6	350.5	354.0	344.1	323.4	277.3	242.5	235.2	202.9	207.0	188.6	177.1	178.4	168.2	162.0	165.3	180.7	166.3	165.4	166.0	180.8	175.1	175.2	175.7	161.9	152.5	134.4	137.5	131.7	118.0	105.2	111.4	100.2	88.91	87.39	87.25	83.55	89.60	78.89
530.0	67.77	110.4	104.5	130.5	127.8	176.9	179.1	197.2	207.3	227.2	251.0	253.9	276.1	297.7	315.7	318.5	279.0	276.5	251.1	229.1	205.0	185.1	167.1	168.4	166.6	159.4	154.4	165.5	149.7	153.6	136.9	155.6	160.9	155.7	154.7	149.5	134.5	139.5	134.8	126.7	112.4	111.4	106.7	93.10	88.95	86.94	82.51	82.18	69.27	77.92	78.36
535.0	57.85	84.37	71.20	120.2	118.7	145.2	163.3	162.5	185.7	210.2	233.1	236.8	237.0	256.6	287.7	279.9	278.3	225.8	216.8	205.5	173.4	160.0	157.6	168.4	160.2	147.1	137.4	132.7	127.7	131.1	127.6	129.3	134.0	137.9	141.8	128.8	125.0	125.0	117.0	107.8	101.6	98.63	95.22	88.03	87.78	80.97	76.59	71.55	64.29	62.99	67.96
540.0	64.44	51.05	94.70	98.89	91.46	182.1	159.3	169.8	233.3	180.0	165.2	196.1	236.3	225.2	265.2	284.5	243.4	225.5	194.5	183.2	171.0	156.6	144.9	144.7	133.9	132.1	131.7	124.3	117.0	124.8	119.9	114.0	120.0	122.7	127.0	118.1	118.2	114.3	108.9	102.3	93.67	89.88	81.16	81.34	78.54	70.84	70.72	63.77	59.08	55.50	58.37
545.0	43.12	56.67	69.05	88.72	148.6	115.1	140.3	121.1	158.5	158.8	183.0	181.1	225.2	236.0	257.9	264.5	224.4	194.5	190.5	165.1	148.1	141.3	126.4	119.0	113.9	122.2	114.5	112.2	109.7	107.4	107.1	107.1	114.1	108.5	111.6	100.4	104.2	98.14	93.07	91.57	82.29	76.89	78.10	73.49	70.68	66.76	63.99	62.74	60.70	58.47	52.00
550.0	59.31	44.42	37.33	79.96	90.17	136.3	145.9	110.5	141.6	154.3	169.9	169.4	187.0	169.8	199.1	322.1	253.1	176.7	179.0	150.6	138.9	127.5	116.4	114.0	110.2	110.0	103.3	105.4	95.60	95.17	100.7	100.6	98.90	100.4	96.07	96.74	92.14	85.51	84.25	83.44	77.55	77.06	74.18	65.16	66.07	62.38	61.73	57.57	53.03	51.55	51.61
