Sample:	'SLABO1-5-5-320
File name:	3N3.FD3
Run Date:	15:09:04, 08/24/2022
Operator:	Administrator
Comment:	'

Instrument
Model:	F-7000 FL Spectrophotometer
Serial Number:	2354-007
ROM Version:	5J14000 06

Instrument Parameters
Measurement type:	3-D Scan
Data mode:	Fluorescence
EX  Start WL:	200.0 nm
EX  End WL:	450.0 nm
EX Sampling Interval:	5.0 nm
EM  Start WL:	280.0 nm
EM  End WL:	550.0 nm
EM Sampling Interval:	5.0 nm
Scan speed:	12000 nm/min
EX Slit:	5.0 nm
EM Slit:	5.0 nm
PMT Voltage:	700 V
Response:	Auto 
Corrected spectra:	Off
Shutter control:	On
Contour interval:	25.000

Peak integration
Integration method:	Rectangular
Sensitivity:	1
Threshold:	1.000

Peaks
No.	ApexEX/EM(nm)	Height(Data)
1	210.0/535.0	94.61
2	225.0/300.0	508.2
3	225.0/310.0	511.6
4	230.0/305.0	503.0
5	230.0/340.0	 1027
6	235.0/350.0	 1139
7	235.0/365.0	 1164
8	235.0/380.0	 1238
9	235.0/390.0	 1203
10	240.0/520.0	377.5
11	245.0/385.0	 1265
12	245.0/410.0	 1338
13	245.0/430.0	 1251
14	245.0/455.0	 1105
15	250.0/400.0	 1326
16	250.0/415.0	 1319
17	255.0/435.0	 1274
18	260.0/430.0	 1294
19	265.0/400.0	 1243
20	270.0/385.0	 1180
21	270.0/410.0	 1243
22	270.0/420.0	 1276
23	270.0/440.0	 1247
24	275.0/305.0	747.6
25	275.0/380.0	 1180
26	275.0/395.0	 1205
27	275.0/425.0	 1280
28	280.0/310.0	866.2
29	280.0/375.0	 1144
30	280.0/400.0	 1226
31	280.0/415.0	 1223
32	285.0/315.0	816.1
33	285.0/380.0	 1170
34	290.0/320.0	745.3
35	290.0/385.0	 1134
36	295.0/330.0	705.5
37	300.0/335.0	694.3
38	300.0/385.0	 1056
39	305.0/340.0	670.0
40	310.0/345.0	667.8
41	315.0/355.0	708.6
42	320.0/360.0	784.8
43	320.0/405.0	 1195
44	325.0/410.0	 1194
45	330.0/375.0	901.2
46	330.0/415.0	 1195
47	340.0/430.0	 1126
48	360.0/445.0	974.2
49	410.0/305.0	2.179
50	425.0/315.0	2.258
51	440.0/345.0	3.228

Data Points
	200.0	205.0	210.0	215.0	220.0	225.0	230.0	235.0	240.0	245.0	250.0	255.0	260.0	265.0	270.0	275.0	280.0	285.0	290.0	295.0	300.0	305.0	310.0	315.0	320.0	325.0	330.0	335.0	340.0	345.0	350.0	355.0	360.0	365.0	370.0	375.0	380.0	385.0	390.0	395.0	400.0	405.0	410.0	415.0	420.0	425.0	430.0	435.0	440.0	445.0	450.0
280.0	27.96	11.72	9.123	25.81	55.65	47.86	32.09	16.00	15.04	36.19	42.27	57.53	44.24	20.38	13.86	185.0	 1132	629.8	24.85	3.888	3.181	1.955	1.609	1.274	1.118	2.693	0.833	1.243	0.625	1.639	1.096	0.373	0.888	0.461	0.839	0.619	0.471	1.022	0.609	0.678	0.442	0.549	0.589	0.582	0.321	0.336	0.764	0.817	0.943	0.441	0.763
285.0	73.74	54.92	76.19	84.67	146.6	164.6	130.5	51.76	38.60	73.83	85.26	96.85	157.8	100.0	42.94	51.32	400.2	 3542	 2279	150.2	5.809	2.797	2.018	3.046	1.747	1.604	1.190	1.112	1.038	1.705	1.396	1.405	1.667	0.650	1.121	0.441	0.931	0.695	0.920	0.717	0.410	1.021	0.496	0.881	0.682	0.992	0.653	0.704	1.350	0.580	0.626
290.0	194.1	148.8	145.7	206.1	213.0	292.9	288.3	122.3	76.51	125.5	143.0	125.6	172.7	258.3	139.4	97.23	100.2	 1264	 7380	 3239	197.3	5.376	4.287	3.681	1.867	1.595	1.220	1.260	1.001	2.067	1.506	1.659	1.071	1.319	1.250	1.529	0.919	0.986	0.739	1.102	1.041	1.039	0.559	0.807	0.607	0.655	0.963	1.447	1.336	1.574	1.449
295.0	285.3	268.7	231.0	308.4	395.9	421.9	353.2	209.8	106.9	143.1	192.3	179.6	174.2	298.0	406.5	247.1	157.1	192.1	 2282	 7799	 4258	237.3	6.287	4.152	4.355	2.968	2.245	2.321	2.084	1.854	1.164	1.734	1.265	1.102	1.526	0.883	0.808	1.241	1.391	1.232	0.632	1.192	0.621	0.849	0.904	1.249	1.945	1.403	1.681	1.616	1.834
300.0	425.5	324.8	278.9	460.1	424.6	508.2	428.2	281.5	151.8	129.8	196.1	201.5	206.3	238.5	492.7	536.0	299.7	211.7	249.5	 2057	 9771	 4823	246.9	6.308	5.976	3.038	2.814	1.716	1.437	2.343	1.975	1.177	1.187	1.631	1.562	0.793	0.947	1.370	1.289	1.635	1.537	1.595	0.939	1.127	1.193	1.566	1.338	1.921	2.183	1.998	1.869
305.0	377.0	327.2	243.4	341.8	435.2	487.1	503.0	323.8	209.7	182.9	214.9	218.9	241.3	285.0	384.6	747.6	596.7	296.0	180.0	213.7	 2261	9999.9	 5145	270.3	8.549	5.016	3.866	4.011	3.147	2.464	2.150	1.993	1.921	1.378	1.072	1.288	1.123	0.938	1.152	1.471	1.596	1.852	2.179	1.716	0.998	1.347	1.016	1.328	1.602	1.528	1.823
310.0	369.3	339.3	262.8	373.3	405.2	511.6	456.7	340.5	229.5	225.2	265.6	273.2	285.7	345.7	410.6	519.5	866.2	527.8	223.5	138.1	211.6	 2233	9999.9	 5240	267.7	8.599	5.436	4.072	3.621	3.697	2.774	1.778	2.792	1.257	0.833	1.025	1.013	1.058	1.589	1.474	1.485	1.211	1.318	1.065	1.246	2.199	1.988	1.214	1.608	1.894	2.276
315.0	321.5	323.2	311.1	312.1	422.7	430.5	487.1	339.5	265.2	273.9	273.6	302.1	322.3	358.9	395.3	491.7	585.1	816.1	394.4	177.4	120.1	207.4	 2529	9999.9	 5384	238.5	5.314	6.278	4.519	2.704	3.305	1.437	1.961	2.373	1.396	0.950	1.070	0.877	1.440	1.760	1.528	0.753	2.038	1.137	0.974	2.258	1.795	1.176	2.162	2.341	2.502
320.0	196.1	223.6	331.1	279.9	570.3	595.8	558.6	391.3	308.5	281.1	322.0	308.8	385.4	390.9	445.9	513.7	580.9	675.2	745.3	297.1	158.4	133.9	237.0	 2344	9999.9	 5328	223.9	10.31	6.111	4.267	3.959	3.419	3.332	2.285	1.596	1.015	1.688	0.795	0.553	1.275	1.424	1.426	1.203	1.172	1.309	1.416	1.236	2.057	2.589	2.225	2.174
325.0	166.2	224.4	316.6	369.5	434.9	732.1	763.8	643.2	365.1	307.3	334.3	355.9	390.3	445.5	527.2	583.1	634.1	589.4	697.9	643.0	266.1	176.5	141.7	237.0	 2461	9999.9	 5450	228.2	8.693	6.842	4.757	4.381	2.193	2.943	2.560	1.406	1.476	1.038	0.999	1.323	1.253	1.345	2.019	1.521	1.087	1.980	1.159	1.456	2.356	2.012	2.638
330.0	143.6	244.9	298.4	318.4	558.5	747.8	917.0	748.4	524.3	404.5	374.6	357.7	442.0	502.6	596.5	689.5	656.8	659.6	609.3	705.5	556.6	256.0	186.8	144.6	242.9	 2344	9999.9	 5686	233.5	8.223	6.713	5.063	5.180	3.279	3.424	1.144	1.205	1.687	1.711	1.367	1.301	1.783	1.819	1.676	1.702	1.292	1.718	2.242	2.242	1.822	3.008
335.0	163.6	247.1	301.4	365.5	511.6	802.5	903.7	845.5	608.0	447.7	439.3	414.3	505.8	524.2	598.6	704.3	715.7	724.7	622.7	543.5	694.3	480.5	238.0	189.4	140.8	253.2	 2554	9999.9	 5389	231.5	10.36	7.817	6.400	4.231	2.556	1.956	2.023	1.506	1.444	1.513	2.104	2.133	1.614	1.339	1.852	1.662	1.841	2.066	2.222	2.209	3.612
340.0	137.5	236.7	274.8	323.6	567.3	834.9	 1027	919.1	681.7	534.3	482.8	508.3	524.7	551.7	656.5	716.6	778.6	750.8	700.6	545.2	529.2	670.0	423.0	243.6	184.6	158.4	277.0	 2338	9999.9	 6919	242.1	10.08	9.229	5.329	5.227	3.326	3.301	1.345	2.178	2.059	1.688	1.761	1.026	1.287	1.394	1.363	2.086	1.649	2.254	2.569	3.836
345.0	206.9	248.6	246.8	353.6	485.8	840.3	953.1	967.2	826.1	632.1	560.6	569.2	621.6	595.8	720.4	770.3	829.4	806.9	774.9	623.7	541.9	587.6	667.8	394.8	260.7	205.3	173.5	256.6	 2354	9999.9	 6246	283.8	12.90	7.705	4.247	3.479	3.174	2.377	2.123	1.480	0.949	1.255	1.178	1.796	1.252	1.678	1.321	1.955	3.228	2.443	2.896
350.0	141.7	251.6	266.5	412.9	509.9	852.8	 1050	 1139	935.9	765.5	699.1	666.6	670.2	725.8	815.4	807.1	904.1	888.5	804.0	729.6	621.7	562.0	624.5	641.6	400.5	286.3	245.9	164.6	258.5	 2488	9999.9	 6047	292.1	10.86	5.777	4.845	3.840	2.614	2.601	1.413	1.593	1.491	1.687	1.433	0.944	1.193	2.320	1.923	2.586	3.222	3.336
355.0	150.4	184.3	239.6	420.8	628.4	821.1	 1000	990.0	990.0	914.3	790.4	768.0	772.9	796.2	867.4	928.7	934.7	944.4	875.9	818.4	717.5	626.7	613.6	708.6	652.0	403.8	316.8	242.7	185.5	269.9	 2521	9999.9	 7603	258.9	10.05	5.982	4.654	2.800	3.172	2.081	1.493	1.366	1.782	1.508	1.659	1.969	1.669	1.864	2.732	3.494	3.815
360.0	135.9	184.9	296.0	368.9	533.6	839.0	 1115	 1117	 1007	918.1	866.8	876.4	854.2	945.3	931.5	 1002	968.2	 1019	945.2	845.5	787.3	744.2	696.6	667.9	784.8	635.0	432.6	339.9	260.5	188.3	280.3	 2199	9999.9	 6306	224.4	10.33	6.632	5.809	4.775	2.895	1.944	2.425	0.954	1.586	1.209	2.198	2.536	2.363	2.485	1.992	3.809
365.0	171.3	207.9	309.1	369.8	622.9	837.1	 1024	 1164	 1098	 1047	910.5	920.0	977.1	960.6	 1054	 1014	 1095	 1032	 1001	934.6	871.9	838.2	784.4	728.7	728.1	834.4	663.7	462.0	348.0	269.5	192.6	245.8	 3092	9999.9	 5589	247.9	8.525	5.925	5.428	2.884	3.483	3.833	1.988	1.627	1.726	2.678	2.002	2.394	2.105	3.463	3.302
370.0	160.8	222.2	392.4	399.3	611.1	861.9	 1065	 1116	 1107	 1079	 1073	962.4	 1008	 1043	 1071	 1058	 1102	 1048	 1019	 1001	922.6	890.7	889.5	839.7	808.4	824.9	858.5	645.5	446.8	341.3	250.8	172.8	294.2	 2391	9999.9	 5446	220.8	11.35	6.215	4.898	3.041	3.420	1.853	1.536	2.393	2.329	2.297	1.968	3.198	2.580	3.209
375.0	179.3	195.1	298.4	388.6	611.9	873.3	 1056	 1090	 1143	 1107	 1088	 1031	 1101	 1129	 1081	 1144	 1144	 1101	 1095	 1053	976.8	954.5	938.3	910.0	898.3	847.0	901.2	868.0	604.6	440.7	334.4	228.0	166.8	242.9	 2088	9999.9	 5170	235.7	10.16	6.775	3.870	4.103	1.405	2.104	1.948	1.566	2.341	2.472	2.304	2.734	3.369
380.0	131.0	248.9	271.4	367.3	711.4	755.9	 1021	 1238	 1237	 1226	 1123	 1098	 1085	 1137	 1141	 1180	 1132	 1170	 1089	 1056	 1048	 1009	 1025	 1005	969.7	943.7	879.1	942.7	827.0	566.5	415.3	301.1	224.1	154.1	222.3	 2023	 9439	 5218	220.6	9.034	6.185	5.756	3.277	3.475	1.886	2.260	2.546	2.586	2.102	3.017	3.743
385.0	140.5	188.4	299.4	472.3	630.0	836.2	 1013	 1141	 1168	 1265	 1127	 1037	 1144	 1177	 1180	 1141	 1154	 1110	 1134	 1052	 1056	 1055	 1045	 1046	 1035	999.4	977.4	917.9	954.6	739.0	519.4	390.3	299.4	223.6	151.0	217.2	 1796	 9135	 5404	203.3	8.223	7.142	4.138	3.617	2.269	2.478	2.880	2.443	2.727	3.237	3.637
390.0	175.9	257.9	375.9	475.3	603.3	831.5	973.5	 1203	 1171	 1201	 1252	 1105	 1177	 1196	 1162	 1201	 1153	 1122	 1093	 1088	 1035	 1087	 1114	 1116	 1075	 1080	 1042	979.6	909.9	922.7	683.9	484.9	365.0	296.4	219.4	156.6	204.7	 1743	 9620	 4537	196.7	9.493	6.539	4.685	3.048	3.267	2.986	2.406	3.296	2.806	3.363
395.0	169.1	257.0	315.3	493.0	634.3	855.7	 1109	 1185	 1232	 1239	 1231	 1183	 1181	 1217	 1193	 1205	 1182	 1157	 1172	 1079	 1105	 1100	 1128	 1148	 1158	 1128	 1092	 1045	949.4	897.5	851.6	640.8	462.6	378.6	293.7	213.3	152.9	201.4	 1820	 8307	 4762	199.5	8.543	5.764	5.330	3.430	2.943	2.913	3.249	3.311	3.233
400.0	183.1	301.5	299.3	514.3	634.0	931.4	 1057	 1165	 1312	 1285	 1326	 1169	 1231	 1243	 1195	 1170	 1226	 1189	 1144	 1117	 1090	 1131	 1140	 1156	 1154	 1158	 1165	 1090	 1016	964.9	906.6	833.7	611.4	495.3	385.0	289.1	202.1	141.6	205.4	 1665	 8031	 4499	161.2	12.19	4.872	4.063	3.411	3.919	2.866	3.018	3.930
405.0	199.9	288.3	305.4	386.8	682.5	938.4	 1093	 1139	 1228	 1237	 1305	 1231	 1199	 1195	 1217	 1193	 1193	 1194	 1162	 1129	 1092	 1100	 1151	 1176	 1195	 1153	 1176	 1133	 1071	993.5	892.0	916.4	787.1	602.0	480.7	370.6	269.2	189.9	140.6	191.3	 1496	 8161	 3789	181.6	9.164	5.136	4.602	3.370	3.819	3.586	4.129
410.0	196.5	370.9	441.7	441.1	641.0	898.5	 1087	 1105	 1251	 1338	 1263	 1233	 1204	 1208	 1243	 1240	 1213	 1220	 1191	 1123	 1080	 1096	 1133	 1174	 1188	 1194	 1186	 1172	 1099	 1046	957.4	891.2	884.0	730.7	562.2	447.2	330.9	248.0	180.7	129.1	169.1	 1649	 7051	 5549	133.2	7.345	6.042	5.478	4.968	5.098	4.644
415.0	120.9	300.7	386.1	499.3	678.9	724.2	 1070	 1214	 1276	 1272	 1319	 1207	 1271	 1258	 1229	 1211	 1223	 1174	 1154	 1104	 1093	 1105	 1112	 1148	 1141	 1182	 1195	 1161	 1138	 1074	987.1	923.2	872.8	874.8	696.5	498.7	405.4	293.4	218.9	148.4	114.1	171.9	 1376	 9311	 3250	141.7	8.895	5.226	4.950	4.475	3.580
420.0	147.9	316.8	358.0	543.9	637.2	829.7	 1026	 1110	 1194	 1254	 1274	 1269	 1271	 1261	 1276	 1236	 1200	 1181	 1139	 1064	 1050	 1073	 1086	 1091	 1136	 1162	 1150	 1157	 1116	 1104	 1030	963.8	871.1	872.2	792.8	600.7	457.1	354.3	270.2	196.2	136.2	102.8	151.6	 1655	 6089	 3327	126.0	7.930	5.277	4.639	3.843
425.0	152.7	309.4	309.7	455.6	618.3	841.0	 1028	 1080	 1146	 1242	 1244	 1229	 1200	 1257	 1231	 1280	 1266	 1142	 1116	 1035	 1019	 1051	 1042	 1088	 1105	 1120	 1128	 1153	 1110	 1103	 1040	985.8	922.3	850.0	847.8	699.3	508.6	396.4	303.8	242.1	175.7	128.0	85.96	158.9	 1238	 5747	 3119	103.0	7.021	6.062	5.407
430.0	121.9	300.7	313.5	478.5	639.4	834.7	964.6	 1150	 1167	 1251	 1231	 1221	 1294	 1219	 1238	 1235	 1180	 1141	 1090	 1018	994.2	995.6	999.5	 1051	 1072	 1090	 1096	 1107	 1126	 1088	 1020	990.8	929.0	865.1	825.4	765.0	611.7	463.1	363.5	271.7	208.7	155.2	104.8	83.36	129.9	 1141	 5984	 2852	92.50	8.399	6.174
435.0	156.2	271.7	291.7	422.9	539.7	728.7	909.9	 1063	 1126	 1223	 1246	 1274	 1231	 1216	 1191	 1235	 1210	 1114	 1069	 1008	951.5	952.5	968.9	987.4	 1015	 1041	 1072	 1087	 1069	 1056	 1028	 1005	936.7	895.7	810.7	746.6	677.9	531.7	404.5	309.0	244.7	183.2	138.2	99.31	75.42	124.6	 1230	 5640	 2647	92.75	8.271
440.0	135.8	247.7	300.4	439.7	670.6	674.3	 1008	 1089	 1120	 1166	 1216	 1207	 1245	 1242	 1247	 1229	 1148	 1118	 1001	956.0	915.9	929.7	943.4	953.4	970.2	987.4	 1026	 1046	 1046	 1029	 1011	984.9	952.7	913.7	846.6	740.7	689.0	608.3	449.9	342.2	290.2	219.6	172.7	125.4	99.15	75.66	131.1	 1177	 5337	 2753	83.95
445.0	159.2	194.4	285.9	399.2	561.2	699.2	862.4	 1089	 1120	 1126	 1233	 1223	 1205	 1174	 1190	 1191	 1166	 1079	 1000	936.9	893.3	868.3	878.4	898.9	926.6	943.2	968.7	978.7	 1003	 1020	986.7	942.0	974.2	919.0	819.4	736.4	664.5	603.0	510.5	384.3	318.0	245.9	202.1	155.8	120.8	87.45	74.13	123.0	 1154	 5409	 2227
450.0	107.3	282.4	285.8	411.6	573.6	656.8	820.4	943.6	 1038	 1009	 1105	 1136	 1204	 1163	 1212	 1153	 1108	 1022	961.6	891.0	861.9	833.7	830.3	828.1	868.8	891.0	930.2	916.3	968.0	955.1	934.8	923.4	915.2	876.1	824.7	746.0	663.6	589.0	545.4	442.4	348.1	281.5	227.8	180.3	143.7	115.0	86.37	68.88	118.2	 1125	 4990
455.0	139.8	244.2	281.9	362.2	414.0	686.6	720.0	913.4	959.9	 1105	 1078	 1041	 1105	 1077	 1142	 1076	 1065	 1021	956.7	844.1	779.0	799.9	758.1	797.0	824.5	830.0	854.5	863.3	890.6	899.8	893.1	896.1	873.9	849.9	811.6	742.1	666.7	563.2	508.1	483.7	386.6	300.3	251.5	211.6	170.6	133.8	101.9	77.41	62.85	112.3	 1081
460.0	179.2	236.8	261.1	382.6	463.3	539.9	745.5	831.9	905.5	 1018	 1002	 1025	 1115	 1063	 1105	 1023	 1012	953.1	859.9	774.1	759.2	724.5	735.5	729.5	739.2	765.6	791.4	818.4	827.5	814.4	833.3	812.7	825.7	782.8	779.1	713.5	629.0	562.3	497.5	451.9	415.2	326.9	269.4	230.0	186.0	154.4	124.7	95.84	68.32	57.34	102.3
465.0	150.1	171.2	268.2	298.9	412.0	635.2	634.2	819.7	786.3	905.6	961.2	940.3	953.3	993.8	 1022	970.7	939.5	838.5	808.4	754.1	693.8	688.6	682.6	684.4	701.7	717.5	722.8	741.0	774.7	784.1	776.6	773.2	769.3	763.3	727.8	685.9	616.0	547.4	487.4	431.6	411.9	373.2	292.9	238.9	204.4	169.7	141.8	100.5	86.02	64.10	52.10
470.0	128.5	186.5	242.0	302.8	361.1	503.7	627.5	713.5	817.6	861.9	902.5	895.0	911.7	 1016	941.7	958.5	883.9	811.2	765.4	693.2	658.9	617.0	628.0	644.2	643.0	653.7	657.7	685.0	695.4	720.3	723.6	712.2	710.3	715.5	690.1	641.4	583.7	541.3	462.9	425.7	370.8	364.4	310.8	248.1	209.5	173.6	153.8	112.6	94.57	72.52	57.83
475.0	74.40	162.2	196.5	295.6	359.6	450.1	571.3	640.9	767.2	783.5	859.5	809.6	832.1	878.2	885.8	884.7	833.9	750.9	703.8	636.7	614.2	567.9	567.8	554.3	579.3	591.2	603.2	624.6	633.1	639.1	642.1	660.5	685.1	663.7	639.9	592.7	555.3	512.7	445.3	402.1	359.3	342.0	317.8	269.9	220.3	180.9	152.3	128.0	106.6	82.37	61.24
480.0	121.4	136.5	155.2	219.4	364.5	351.0	518.8	641.0	653.8	774.6	787.5	786.7	824.9	828.1	844.9	821.3	770.3	710.2	635.9	587.5	553.5	536.4	522.0	522.2	529.3	535.3	557.8	564.5	570.9	596.9	601.3	603.1	611.3	621.5	583.7	569.4	531.1	475.2	422.3	396.1	344.6	313.9	308.8	289.1	228.0	180.7	164.8	136.7	109.0	84.22	75.08
485.0	83.23	93.96	205.1	250.6	341.1	406.6	422.8	558.9	619.3	670.3	724.3	717.8	767.2	742.3	808.0	729.2	733.3	662.2	615.4	563.9	512.2	488.1	465.7	490.9	493.6	500.6	504.9	526.8	544.1	544.0	550.3	564.5	563.8	561.6	553.0	535.0	492.2	441.6	413.2	377.9	348.6	304.3	277.7	275.7	247.6	198.8	169.3	138.5	114.2	96.74	74.48
490.0	74.12	80.26	176.7	222.3	329.6	400.6	491.4	458.0	597.5	657.4	660.8	706.7	688.6	731.5	724.3	698.1	683.0	639.9	556.8	536.2	480.2	463.0	454.1	450.9	470.2	469.4	469.6	493.2	480.6	492.6	516.8	514.9	538.0	537.6	541.8	497.9	470.2	433.1	386.0	360.3	320.3	296.0	268.3	254.7	245.5	218.4	175.9	146.1	121.4	101.1	81.84
495.0	86.16	119.8	167.5	180.5	236.8	367.2	430.1	503.6	555.2	571.9	587.5	692.1	665.8	676.8	699.8	684.3	617.1	597.4	548.8	498.2	453.4	430.4	408.0	427.9	423.6	413.1	417.5	454.0	459.6	465.1	447.7	480.1	474.9	489.3	500.7	454.5	448.1	413.5	381.8	353.7	319.5	286.6	272.4	242.0	226.3	223.0	183.8	155.7	119.9	106.7	85.20
500.0	91.15	119.0	119.4	162.3	239.3	276.6	404.0	421.3	484.1	539.9	605.2	586.3	632.3	651.6	643.9	660.9	595.0	553.8	497.4	450.8	420.5	410.0	386.7	382.3	395.3	385.1	394.4	399.1	411.4	414.0	420.2	430.1	442.0	435.1	434.6	425.8	406.2	375.6	357.3	324.4	294.2	270.7	252.6	234.3	211.5	206.0	187.7	154.2	125.4	109.5	96.44
505.0	80.11	117.4	123.6	148.7	235.8	288.2	338.3	412.9	436.6	516.0	534.4	573.9	561.9	577.2	592.1	597.3	556.8	502.0	473.7	428.2	367.5	373.6	351.3	360.1	355.7	345.6	351.9	367.6	371.0	381.8	388.0	394.8	402.7	404.8	406.1	390.0	373.2	339.4	333.5	296.5	279.6	254.7	247.9	234.0	199.2	188.4	178.1	163.0	130.4	105.9	91.24
510.0	67.69	105.4	115.8	192.6	228.1	293.5	304.1	408.3	406.4	452.3	470.2	475.8	496.7	550.5	552.3	559.1	519.2	491.8	407.6	387.6	322.9	339.1	314.9	319.5	325.8	311.1	322.9	339.0	330.2	341.1	354.5	353.7	362.0	361.3	365.9	358.2	336.8	311.6	304.8	276.9	260.4	242.6	223.6	210.6	198.0	174.7	163.6	168.9	144.1	105.5	96.83
515.0	86.32	56.18	114.7	121.5	198.4	200.4	317.5	384.6	316.5	383.8	431.0	463.8	468.6	489.7	508.3	480.4	467.5	404.5	382.5	337.8	312.8	304.9	284.2	291.8	279.8	270.1	296.0	298.0	295.1	308.5	307.5	322.6	332.9	342.3	345.1	332.0	311.6	292.0	281.3	256.6	244.3	221.1	214.9	201.6	188.2	169.4	149.5	145.9	142.9	118.7	96.84
520.0	55.33	60.90	86.99	142.1	146.2	187.4	283.5	319.9	377.5	360.0	369.9	403.8	432.5	429.4	448.9	468.2	461.7	367.4	350.4	325.8	281.4	284.3	252.7	251.4	252.1	261.9	253.4	265.9	270.1	275.9	284.0	288.7	296.5	316.7	304.8	296.1	277.7	263.3	251.1	235.8	214.9	208.0	195.7	183.8	168.0	153.9	142.3	130.3	134.8	122.4	96.70
525.0	29.76	69.65	79.03	123.0	151.6	193.2	237.9	273.0	328.9	351.0	390.6	375.8	403.9	424.8	392.2	420.4	391.7	368.4	301.7	275.7	261.3	251.3	233.9	237.2	235.9	232.8	234.9	240.1	237.4	246.9	258.8	256.5	267.3	274.5	270.2	271.3	254.9	239.0	231.2	212.2	201.0	183.5	184.5	171.3	156.6	145.8	131.4	124.0	118.5	110.4	103.1
530.0	47.25	65.89	59.71	96.18	108.8	127.5	227.6	268.1	252.4	326.3	328.6	342.9	358.2	341.1	362.1	379.5	354.3	313.4	292.0	250.0	240.6	215.4	217.0	204.3	208.8	191.3	199.9	213.3	214.7	222.0	225.0	221.3	234.5	239.4	247.2	232.8	228.3	210.5	204.5	195.9	190.1	174.8	162.4	158.4	145.4	135.4	121.2	109.3	100.9	97.66	97.76
535.0	20.88	68.07	94.61	90.86	87.48	173.7	190.5	235.2	222.4	265.2	270.6	288.4	326.0	314.4	347.9	321.8	336.3	285.3	258.9	230.0	207.1	208.9	195.6	193.8	182.4	181.1	188.5	182.8	184.1	184.9	186.4	200.1	207.4	215.1	214.5	201.9	207.9	193.0	182.6	171.9	168.2	158.6	147.2	145.7	126.4	123.4	115.4	107.6	97.69	83.84	86.49
540.0	44.34	63.45	82.66	105.1	108.4	162.4	183.5	174.2	202.6	207.5	254.2	246.2	282.3	294.7	319.5	294.3	272.4	278.9	237.9	205.3	190.5	183.9	179.2	174.9	174.0	164.5	156.9	168.2	161.5	165.2	167.0	182.1	183.8	178.7	192.5	181.1	175.6	167.1	166.7	165.0	143.1	141.7	126.0	132.0	112.9	112.0	97.38	100.3	91.26	84.79	77.69
545.0	43.08	17.84	30.96	78.00	85.77	136.7	181.8	169.8	165.6	199.3	229.5	243.5	262.2	256.9	277.9	278.2	256.7	212.5	208.6	190.8	180.3	155.0	155.0	160.0	147.2	154.1	144.8	141.4	157.0	142.0	159.7	151.8	166.7	161.3	169.7	158.8	156.6	153.7	148.2	144.5	129.4	127.7	123.6	112.5	104.3	101.2	93.46	87.92	79.27	73.75	67.85
550.0	29.22	71.52	49.35	118.4	106.7	134.3	128.5	151.2	138.6	201.4	201.7	216.7	200.4	243.2	223.0	280.2	261.9	206.3	193.2	172.7	165.9	139.2	136.1	145.0	131.6	125.9	135.0	130.2	131.3	133.5	143.4	145.2	147.2	152.2	157.3	147.8	140.2	140.4	133.3	126.5	122.0	114.3	110.3	100.3	98.49	88.05	88.39	79.67	77.34	68.71	66.66
