Sample:	'SLABO1-5-5-320
File name:	3N4.FD3
Run Date:	15:13:35, 08/24/2022
Operator:	Administrator
Comment:	'

Instrument
Model:	F-7000 FL Spectrophotometer
Serial Number:	2354-007
ROM Version:	5J14000 06

Instrument Parameters
Measurement type:	3-D Scan
Data mode:	Fluorescence
EX  Start WL:	200.0 nm
EX  End WL:	450.0 nm
EX Sampling Interval:	5.0 nm
EM  Start WL:	280.0 nm
EM  End WL:	550.0 nm
EM Sampling Interval:	5.0 nm
Scan speed:	12000 nm/min
EX Slit:	5.0 nm
EM Slit:	5.0 nm
PMT Voltage:	700 V
Response:	Auto 
Corrected spectra:	Off
Shutter control:	On
Contour interval:	25.000

Peak integration
Integration method:	Rectangular
Sensitivity:	1
Threshold:	1.000

Peaks
No.	ApexEX/EM(nm)	Height(Data)
1	205.0/310.0	590.9
2	205.0/510.0	174.8
3	210.0/535.0	122.7
4	215.0/530.0	158.6
5	220.0/300.0	624.8
6	220.0/545.0	159.4
7	230.0/305.0	700.5
8	230.0/345.0	 1116
9	230.0/365.0	 1140
10	235.0/355.0	 1075
11	235.0/390.0	 1181
12	240.0/400.0	 1231
13	240.0/420.0	 1244
14	245.0/385.0	 1192
15	245.0/405.0	 1235
16	245.0/440.0	 1226
17	245.0/455.0	 1026
18	250.0/390.0	 1168
19	250.0/410.0	 1257
20	250.0/425.0	 1239
21	250.0/460.0	 1007
22	255.0/400.0	 1237
23	255.0/420.0	 1277
24	255.0/440.0	 1212
25	260.0/425.0	 1289
26	260.0/445.0	 1225
27	260.0/545.0	259.4
28	265.0/415.0	 1313
29	270.0/395.0	 1264
30	270.0/420.0	 1256
31	270.0/440.0	 1247
32	275.0/305.0	759.6
33	275.0/405.0	 1254
34	275.0/430.0	 1261
35	280.0/310.0	896.8
36	285.0/315.0	923.6
37	290.0/320.0	795.0
38	290.0/380.0	 1092
39	295.0/330.0	722.0
40	300.0/335.0	695.2
41	305.0/340.0	706.5
42	310.0/345.0	690.0
43	310.0/400.0	 1104
44	315.0/355.0	676.2
45	320.0/360.0	762.6
46	325.0/365.0	821.2
47	325.0/415.0	 1131
48	330.0/370.0	836.0
49	340.0/385.0	868.3
50	340.0/420.0	 1089
51	400.0/300.0	2.847
52	425.0/300.0	2.706
53	435.0/345.0	3.365
54	435.0/400.0	5.325
55	440.0/355.0	3.866

Data Points
	200.0	205.0	210.0	215.0	220.0	225.0	230.0	235.0	240.0	245.0	250.0	255.0	260.0	265.0	270.0	275.0	280.0	285.0	290.0	295.0	300.0	305.0	310.0	315.0	320.0	325.0	330.0	335.0	340.0	345.0	350.0	355.0	360.0	365.0	370.0	375.0	380.0	385.0	390.0	395.0	400.0	405.0	410.0	415.0	420.0	425.0	430.0	435.0	440.0	445.0	450.0
280.0	56.61	59.68	58.22	31.49	50.89	60.21	42.35	13.66	11.49	13.98	33.85	71.82	48.76	17.12	14.61	212.1	 1624	922.1	32.22	2.840	3.940	3.109	2.077	2.139	1.275	1.973	1.692	1.714	1.093	2.019	1.174	1.336	0.788	2.246	0.576	1.274	1.017	0.869	0.786	0.941	0.629	0.826	0.706	0.679	1.001	0.261	0.490	0.871	0.348	0.538	0.564
285.0	185.7	142.8	144.1	147.4	181.7	202.4	164.8	64.43	29.93	81.39	116.2	102.3	181.9	104.7	60.38	55.03	640.9	 4839	 2750	205.1	6.187	4.648	4.664	2.415	1.855	1.811	1.068	1.039	0.812	1.048	1.779	1.491	1.107	0.685	0.437	0.995	0.737	0.807	1.184	0.787	1.202	1.382	0.886	0.825	0.633	1.002	0.638	0.959	1.010	1.210	0.852
290.0	408.2	251.6	299.6	245.7	305.9	386.0	270.9	118.8	83.87	91.42	142.9	148.5	197.5	320.5	165.5	114.6	128.3	 1634	 6733	 4525	244.9	8.067	7.491	2.313	3.872	3.240	3.715	1.953	1.060	1.408	1.288	0.757	0.720	1.270	0.629	1.038	1.274	0.790	0.706	1.960	1.128	1.106	0.926	0.772	1.798	1.157	0.761	1.650	1.205	1.873	1.497
295.0	445.3	351.4	372.2	431.2	506.9	509.0	384.6	195.9	147.4	161.7	185.4	171.3	215.5	362.0	453.1	248.2	184.5	225.5	 1870	9999.9	 5461	332.4	8.081	6.283	4.456	2.541	3.611	2.635	1.067	2.042	1.449	2.266	0.836	1.243	1.369	1.358	1.010	0.934	1.534	2.416	1.063	1.369	1.598	0.804	1.489	1.623	1.513	1.420	1.984	1.767	1.817
300.0	618.8	514.0	439.1	436.4	624.8	618.5	537.0	275.2	195.3	184.0	209.2	226.7	226.6	243.0	564.3	576.6	324.7	216.2	235.7	 2569	9999.9	 6344	347.5	10.56	7.734	5.588	3.719	3.303	2.675	1.641	1.876	1.482	0.936	0.928	0.874	1.761	1.054	0.950	1.626	2.271	2.847	1.792	1.964	1.647	1.520	2.706	1.696	2.187	2.520	2.654	2.851
305.0	525.1	493.5	473.8	529.4	571.3	687.1	700.5	355.5	219.2	226.6	248.9	245.0	288.0	336.2	407.1	759.6	622.9	329.9	192.4	260.0	 2636	9999.9	 6780	387.6	11.40	7.536	5.484	3.933	2.351	2.011	2.781	2.793	1.635	1.650	1.808	1.602	1.361	1.025	0.972	1.928	2.580	1.848	1.965	1.762	1.559	1.445	2.469	2.410	2.149	2.249	2.073
310.0	561.9	590.9	546.4	499.4	562.5	674.3	578.4	422.5	276.1	231.0	248.6	264.8	299.0	380.4	440.6	572.1	896.8	557.1	260.1	142.1	238.9	 2571	9999.9	 7418	374.6	9.008	8.202	6.888	3.267	2.703	1.905	2.876	1.720	2.239	1.346	2.017	1.991	1.244	1.126	1.831	1.356	2.119	2.205	2.385	2.016	1.644	2.111	2.352	2.455	2.725	2.101
315.0	508.8	444.8	499.8	414.6	559.9	575.7	616.0	458.1	295.1	252.6	259.0	329.6	326.1	381.2	473.4	521.1	665.8	923.6	416.1	193.6	138.5	238.2	 2897	9999.9	 7195	314.7	8.892	6.246	5.151	4.385	2.941	4.134	2.687	2.268	1.720	2.099	1.756	1.367	1.634	2.373	1.800	1.566	2.329	2.050	1.613	1.373	1.831	1.494	2.303	2.792	2.189
320.0	471.0	415.2	432.0	566.0	621.5	646.4	647.4	479.9	331.4	327.3	308.9	330.3	372.3	473.6	521.5	588.1	618.8	748.8	795.0	323.5	171.5	124.8	261.4	 3085	9999.9	 7133	314.1	11.04	6.920	5.521	3.557	4.038	3.235	1.804	1.756	1.004	1.027	1.654	1.722	2.146	1.311	1.589	1.679	2.289	1.230	1.560	2.000	1.807	1.648	3.120	3.104
325.0	372.7	413.0	434.3	421.8	586.3	668.1	754.2	681.0	441.5	383.9	309.5	358.6	423.8	481.4	541.8	653.3	653.1	634.7	769.6	697.1	257.6	164.8	135.6	272.2	 2976	9999.9	 6690	321.3	9.858	8.101	6.300	5.802	3.067	2.610	1.720	2.404	2.627	2.049	1.868	2.225	1.559	1.579	2.079	0.984	1.395	2.360	1.926	2.433	1.896	2.758	2.869
330.0	410.7	344.7	465.9	488.0	639.4	745.6	943.7	814.8	528.3	392.3	359.9	357.4	505.2	506.6	601.6	665.0	688.5	668.3	623.8	722.0	563.3	232.9	171.7	144.6	270.4	 2770	9999.9	 6776	312.2	10.12	6.836	5.775	2.989	3.347	2.573	1.613	2.624	1.670	2.274	2.625	1.842	1.638	1.462	1.512	1.348	1.728	1.948	1.850	3.102	2.936	2.522
335.0	295.8	396.4	498.9	480.3	649.2	 1012	 1023	896.5	654.7	428.7	421.7	435.9	465.3	531.2	642.6	696.0	742.4	746.1	646.8	543.7	695.2	480.1	224.7	164.4	133.5	247.4	 2788	9999.9	 6474	303.2	11.50	7.405	5.707	5.678	4.276	1.742	3.048	1.565	1.405	2.157	2.238	1.858	1.657	1.884	1.708	2.460	2.091	1.717	2.728	3.113	3.159
340.0	270.9	274.1	414.3	465.9	550.1	927.3	 1013	 1037	732.9	483.4	417.7	441.3	505.3	559.6	652.2	799.6	805.7	805.3	694.3	580.2	538.2	706.5	421.6	235.8	171.1	137.1	260.9	 2471	9999.9	 6555	334.9	11.48	7.141	5.074	4.022	2.560	3.295	1.352	2.014	2.351	1.598	1.418	1.325	1.887	1.593	1.428	2.233	2.773	2.559	3.269	2.983
345.0	209.8	318.2	372.2	482.7	625.0	901.3	 1116	 1068	785.2	551.7	533.7	531.4	551.3	614.9	726.1	792.6	853.6	870.1	778.9	640.7	528.0	561.8	690.0	385.2	221.2	171.8	145.5	242.6	 2300	9999.9	 6834	331.3	11.04	6.676	6.154	4.288	5.123	3.066	2.021	2.262	1.609	2.124	1.194	2.132	2.086	1.690	2.055	3.365	2.929	3.325	3.229
350.0	190.1	279.2	301.1	435.0	633.3	872.6	 1108	 1036	912.4	659.3	614.8	625.2	621.5	680.9	725.9	788.7	879.5	929.9	816.8	716.5	619.5	546.8	634.4	663.5	364.2	258.6	194.7	161.7	245.3	 2240	9999.9	 7344	320.2	10.32	7.162	6.709	4.994	2.656	3.689	2.284	1.543	2.037	2.011	2.598	1.674	2.005	2.108	3.095	2.830	3.474	2.893
355.0	204.9	253.4	312.4	433.3	620.1	935.6	 1057	 1075	939.8	843.5	736.3	737.2	785.8	778.5	820.4	890.2	941.7	949.5	830.4	791.6	691.2	610.9	574.1	676.2	614.7	352.9	284.4	219.7	171.3	246.6	 2251	9999.9	 6829	316.0	11.91	7.303	5.299	3.247	3.967	2.897	3.193	2.669	2.127	2.749	2.074	1.948	1.810	1.720	3.866	3.651	3.372
360.0	196.0	309.1	363.8	573.2	638.6	873.7	 1035	 1034	 1028	904.5	829.9	803.4	865.4	863.0	946.8	946.1	 1004	 1007	954.4	849.3	775.9	701.9	647.5	612.5	762.6	596.2	388.7	315.4	246.9	162.3	246.9	 2581	9999.9	 6194	260.5	10.74	6.483	4.688	3.667	3.641	3.289	2.316	1.828	2.128	2.531	1.605	1.752	2.559	3.139	3.241	2.801
365.0	178.0	264.1	460.9	431.3	651.7	914.7	 1140	 1112	 1044	948.8	971.5	842.8	919.0	 1001	949.4	 1071	 1087	 1018	989.1	904.2	834.7	808.1	749.4	673.8	675.1	821.2	599.0	407.1	318.1	232.7	170.1	268.5	 2304	9999.9	 6163	291.2	11.42	6.744	6.963	5.395	3.885	2.630	2.791	2.839	1.579	2.600	2.611	2.429	2.748	3.391	3.611
370.0	184.0	315.0	369.2	482.5	641.4	839.9	982.6	 1069	 1108	975.2	 1012	944.2	 1019	 1065	 1066	 1108	 1065	 1069	 1020	963.5	919.6	899.3	821.0	773.0	722.2	761.1	836.0	578.5	402.1	304.1	229.6	160.7	239.5	 2231	9999.9	 6605	268.7	11.14	9.953	8.110	3.452	3.529	2.756	2.780	1.813	1.724	2.727	3.143	2.451	3.538	4.298
375.0	135.3	226.2	387.3	441.2	622.0	749.2	 1069	 1074	 1126	 1114	 1049	 1079	 1036	 1153	 1171	 1144	 1146	 1067	 1087	 1000	952.7	949.1	899.6	847.5	823.7	775.6	807.2	813.0	565.4	402.6	303.3	220.2	149.2	235.3	 2058	9999.9	 6362	260.7	14.87	10.53	5.223	4.153	4.100	3.560	2.143	2.437	2.077	2.843	2.976	3.281	3.578
380.0	231.6	310.9	335.8	427.7	675.5	911.0	 1092	 1131	 1127	 1111	981.6	 1092	 1131	 1159	 1129	 1145	 1129	 1037	 1092	 1025	 1001	985.2	968.6	913.2	878.3	860.9	824.2	855.2	756.7	548.7	398.4	297.7	212.8	151.4	219.3	 2160	9999.9	 5846	479.5	17.39	6.556	4.582	5.125	5.270	2.561	2.881	2.804	2.570	3.236	3.366	3.521
385.0	282.9	413.2	483.0	489.6	620.8	850.7	929.4	 1139	 1125	 1192	 1143	 1117	 1030	 1189	 1216	 1178	 1158	 1131	 1080	 1073	 1017	 1008	 1004	997.4	950.7	928.0	840.4	845.1	868.3	703.5	480.3	384.1	276.5	208.2	144.1	227.1	 2115	9999.9	 9423	276.8	10.96	5.703	4.991	5.314	3.536	2.411	2.990	2.808	2.966	3.245	3.808
390.0	212.7	302.6	379.9	575.9	690.9	843.7	943.6	 1181	 1143	 1166	 1168	 1104	 1175	 1153	 1241	 1215	 1177	 1162	 1093	 1064	 1035	 1037	 1052	 1049	 1012	 1008	945.0	883.7	833.7	868.6	635.6	463.0	378.4	278.9	207.7	147.3	224.7	 1843	9999.9	 7422	198.1	10.83	7.485	5.960	4.065	3.769	3.180	3.543	4.204	3.507	3.583
395.0	173.8	310.6	327.6	611.8	650.5	876.4	 1017	 1059	 1147	 1153	 1132	 1145	 1153	 1192	 1264	 1178	 1167	 1153	 1110	 1063	 1053	 1049	 1077	 1049	 1055	 1049	993.6	958.8	879.4	860.0	818.8	602.4	465.3	361.8	285.7	202.2	145.0	206.0	 2200	9999.9	 5151	209.1	10.43	8.221	4.317	4.075	4.368	3.241	4.454	3.345	4.745
400.0	278.8	371.8	465.4	591.7	716.5	852.6	 1026	 1104	 1231	 1194	 1187	 1237	 1202	 1266	 1228	 1172	 1198	 1161	 1122	 1070	 1061	 1053	 1104	 1098	 1089	 1079	 1063	 1009	949.5	885.9	877.6	798.7	596.3	461.0	363.6	278.2	193.6	134.7	228.7	 2634	 9233	 4493	193.0	10.81	6.340	5.694	3.395	5.325	5.220	3.476	2.942
405.0	223.7	418.9	334.3	494.5	745.1	905.1	 1102	 1175	 1146	 1235	 1222	 1197	 1249	 1255	 1235	 1254	 1217	 1209	 1134	 1084	 1043	 1043	 1050	 1094	 1106	 1118	 1091	 1055	 1000	952.3	863.6	865.4	757.6	562.1	444.2	350.1	255.1	182.1	132.5	248.6	 1794	 7971	 4536	156.9	10.08	9.387	4.946	4.277	4.044	3.929	4.428
410.0	212.7	275.5	480.4	631.8	838.1	985.3	 1029	 1074	 1235	 1217	 1257	 1243	 1220	 1273	 1254	 1224	 1195	 1189	 1151	 1083	 1090	 1044	 1100	 1092	 1111	 1115	 1108	 1089	 1041	960.2	919.8	845.1	857.0	724.2	522.7	418.5	318.3	236.6	168.6	130.4	192.4	 1554	 8188	 4189	189.4	9.356	5.310	6.469	5.254	5.109	4.176
415.0	148.5	348.7	484.6	553.9	748.7	885.2	 1025	 1118	 1171	 1222	 1222	 1244	 1233	 1313	 1255	 1223	 1219	 1151	 1116	 1090	 1050	 1028	 1052	 1059	 1100	 1131	 1116	 1121	 1040	 1006	952.0	858.6	837.1	846.0	643.4	474.2	379.0	278.5	211.5	147.8	111.3	164.9	 1559	 7863	 3733	149.9	8.870	7.322	6.770	5.764	3.647
420.0	152.8	298.2	465.7	631.4	634.6	796.2	 1056	 1149	 1244	 1236	 1184	 1277	 1217	 1181	 1256	 1250	 1178	 1173	 1101	 1027	 1017	 1008	 1028	 1060	 1078	 1100	 1111	 1066	 1089	 1036	973.7	911.6	840.5	839.3	779.9	559.0	438.3	338.7	251.1	191.6	135.0	94.46	158.4	 1597	 6334	 4101	122.8	9.055	8.638	5.453	5.427
425.0	212.7	270.4	452.9	573.0	687.5	901.1	961.5	 1052	 1075	 1215	 1239	 1187	 1289	 1282	 1250	 1231	 1159	 1183	 1124	 1004	984.4	980.4	975.9	 1019	 1060	 1059	 1096	 1058	 1033	 1024	988.6	915.0	857.0	802.2	776.6	680.1	486.9	363.0	284.8	221.3	167.9	113.4	89.13	153.2	 1183	 8108	 3103	109.0	14.06	7.953	6.355
430.0	197.6	257.3	370.8	523.9	702.9	862.7	983.1	 1078	 1171	 1225	 1203	 1251	 1267	 1263	 1224	 1261	 1180	 1100	 1074	 1006	936.9	964.1	948.7	985.5	 1016	 1042	 1035	 1048	 1048	 1011	986.2	924.0	890.6	821.0	768.6	718.9	596.0	426.7	338.8	259.6	211.7	149.6	111.1	79.26	127.4	 1601	 5903	 3238	152.6	9.717	7.851
435.0	199.4	354.5	350.3	502.9	701.3	730.2	878.6	 1061	 1158	 1101	 1181	 1113	 1195	 1255	 1238	 1235	 1196	 1107	 1035	986.6	930.8	899.4	930.9	945.8	969.0	976.5	 1019	 1014	 1027	 1024	954.7	948.0	899.7	841.9	754.1	700.2	644.4	497.6	372.4	301.5	229.7	179.7	123.1	92.87	77.12	152.0	 1171	 6608	 4704	99.13	8.548
440.0	208.8	256.4	383.7	526.2	656.5	780.5	976.0	975.3	 1061	 1226	 1101	 1212	 1195	 1172	 1247	 1187	 1167	 1095	 1026	961.7	877.8	891.4	894.7	907.5	914.4	939.3	991.9	974.3	979.7	971.7	949.2	909.6	928.7	872.9	768.6	697.2	640.4	574.0	423.6	328.4	269.3	211.3	158.8	124.0	94.61	79.32	124.5	 1334	 8004	 3331	83.39
445.0	234.9	305.5	362.1	456.3	601.6	733.0	895.7	967.5	 1046	 1035	 1075	 1162	 1225	 1136	 1159	 1160	 1123	 1044	969.3	897.5	877.2	840.6	840.8	838.2	884.1	889.6	916.6	932.1	972.0	938.5	930.4	901.5	892.0	847.7	805.9	690.2	608.0	564.9	486.2	374.1	291.2	236.5	191.9	152.1	121.0	92.27	77.57	134.7	 1472	 6809	 2514
450.0	194.3	286.5	320.6	548.1	597.7	788.2	766.6	944.0	 1010	997.4	 1057	 1084	 1175	 1171	 1180	 1175	 1044	997.5	909.0	859.8	822.4	780.3	809.1	823.7	829.3	835.1	864.7	896.6	896.9	891.4	886.4	865.6	863.2	836.4	778.7	689.4	610.4	547.4	510.4	409.4	325.3	270.3	218.2	183.5	140.0	120.6	91.77	74.73	138.6	 1357	 5825
455.0	210.4	307.2	404.4	388.6	647.6	614.7	724.7	797.8	925.7	 1026	974.3	 1095	 1137	 1124	 1087	 1076	 1039	973.1	893.2	816.5	784.8	766.8	742.5	749.7	778.9	800.9	808.5	815.8	828.4	846.5	847.9	821.5	814.7	799.7	759.2	692.2	604.7	535.9	483.2	460.0	351.7	284.7	240.6	204.5	172.5	150.6	106.4	85.83	65.67	131.1	 1253
460.0	152.3	235.2	318.3	467.4	450.8	623.7	686.0	864.2	929.1	950.4	 1007	966.6	 1012	 1050	 1059	 1076	983.4	873.6	844.9	772.4	733.4	719.1	718.4	716.1	721.1	718.5	761.3	746.0	799.8	768.7	781.7	775.5	770.2	761.3	730.2	664.7	608.4	514.6	468.8	435.3	401.4	324.8	255.7	227.6	187.6	155.2	121.3	99.29	74.79	59.49	117.2
465.0	178.8	207.6	272.7	408.9	445.6	631.4	766.5	750.2	827.4	891.1	956.0	953.4	 1004	 1003	998.9	 1008	936.5	852.9	798.0	744.8	685.3	653.7	659.0	640.3	674.0	671.4	681.0	713.5	703.3	727.1	722.7	726.3	714.5	716.9	679.5	645.7	577.2	510.7	442.2	404.6	387.9	356.8	280.6	235.9	194.3	167.5	151.4	112.5	81.67	64.62	52.32
470.0	208.5	200.4	319.5	323.4	470.5	481.0	649.2	680.1	785.1	852.9	845.1	864.5	875.0	914.2	930.7	932.9	881.2	811.1	765.7	697.6	629.8	602.5	594.0	601.6	623.2	618.5	636.7	650.6	671.0	678.2	681.3	661.7	669.8	675.7	646.4	614.9	546.9	483.6	442.8	389.9	353.0	356.1	299.0	254.3	217.5	183.0	158.2	120.1	94.20	72.34	56.31
475.0	146.8	191.7	302.1	312.3	411.8	533.3	515.1	674.2	709.0	738.2	830.9	812.9	869.7	861.6	849.1	863.3	813.1	752.6	722.7	640.3	560.0	556.1	541.3	546.2	549.0	553.1	584.2	603.1	583.0	625.4	618.3	609.3	606.7	622.8	599.2	572.9	512.2	468.9	410.0	376.9	353.7	319.0	308.3	266.9	216.9	187.0	154.0	124.9	99.17	74.64	59.44
480.0	141.2	159.5	245.6	340.8	359.4	429.5	525.4	593.2	635.0	732.1	794.3	749.8	781.9	831.9	858.0	795.2	780.5	664.0	632.5	597.3	541.1	525.4	507.4	493.8	521.4	516.4	530.8	535.4	547.6	559.9	561.6	544.7	546.4	575.4	555.1	538.7	479.7	449.6	404.8	367.8	321.6	301.8	290.4	268.7	230.9	192.1	161.2	135.3	106.6	85.05	61.47
485.0	172.1	171.1	186.4	251.5	350.7	388.5	528.2	556.8	559.6	641.5	712.7	722.5	711.5	738.9	774.7	740.0	673.8	679.9	605.8	542.6	495.8	479.3	456.8	462.5	469.1	455.6	479.4	492.1	511.9	505.3	520.1	528.2	523.3	540.6	527.0	494.6	448.6	405.7	375.2	353.1	319.0	279.2	275.6	262.4	242.6	198.9	162.9	144.9	113.3	86.93	70.67
490.0	130.7	161.7	187.1	280.6	295.7	397.3	456.2	462.6	597.7	630.0	685.2	687.1	692.0	707.9	725.3	702.4	636.0	615.3	565.7	503.0	477.5	454.1	440.7	427.3	431.2	441.4	448.6	462.8	464.3	465.9	485.9	486.6	492.1	501.7	482.9	454.3	443.6	388.6	355.3	346.3	300.9	281.4	260.4	245.6	248.1	213.5	167.2	137.8	114.4	96.38	77.03
495.0	56.26	127.7	201.3	266.2	382.5	367.8	456.7	495.2	477.5	565.0	593.7	635.7	635.1	658.3	692.1	691.7	640.9	577.2	520.3	482.5	448.5	410.8	405.8	413.1	404.3	414.9	405.8	424.7	416.6	430.0	438.9	450.1	452.9	462.9	442.2	427.1	401.7	373.3	333.5	319.4	290.2	263.8	245.6	224.5	221.9	218.7	177.4	144.2	115.7	94.99	78.81
500.0	114.7	91.33	169.8	187.4	223.2	312.6	339.5	386.9	429.2	504.5	562.8	577.2	582.2	651.9	630.0	604.8	545.3	548.6	501.7	433.7	405.2	378.5	390.7	385.4	374.8	367.1	378.2	385.8	394.4	403.2	389.6	410.5	425.7	430.4	411.8	400.2	368.4	350.9	328.9	294.0	277.7	258.0	237.8	221.1	202.0	198.2	187.2	147.0	120.9	103.1	83.74
505.0	91.12	121.5	149.4	195.0	210.8	361.3	308.1	415.0	462.8	477.9	558.4	546.6	571.6	595.3	591.2	589.8	529.9	471.2	450.8	369.7	373.3	339.2	337.5	334.4	349.8	328.4	334.4	351.1	360.2	350.1	353.3	354.7	368.6	383.4	382.9	364.4	346.6	317.7	304.3	287.6	261.3	242.6	226.1	207.5	194.6	184.0	171.0	158.6	120.8	99.73	87.12
510.0	74.07	174.8	154.1	188.4	187.9	238.8	343.2	386.7	430.8	428.4	475.8	441.9	521.9	514.1	526.1	523.4	501.2	446.4	423.0	354.1	334.8	317.3	302.1	309.6	301.0	304.4	308.3	306.2	302.9	321.3	319.6	333.4	339.0	345.9	336.2	335.5	325.5	295.7	270.4	260.2	238.5	228.7	209.8	194.0	177.3	168.6	158.6	157.6	135.6	105.2	82.69
515.0	113.0	134.4	122.0	176.4	248.9	268.6	340.1	304.0	356.8	387.7	404.8	438.6	476.3	468.2	523.9	484.1	417.5	416.3	363.1	315.8	298.1	287.4	275.6	280.2	265.5	268.6	276.3	285.7	288.4	284.4	290.3	300.7	306.1	308.0	316.5	305.2	283.1	267.2	247.1	234.8	224.4	218.0	196.6	180.8	166.5	162.7	146.8	138.5	137.7	104.9	90.62
520.0	58.21	139.3	155.4	176.6	178.4	244.6	285.4	302.6	359.3	342.3	390.3	385.0	432.3	449.7	465.0	436.0	404.4	379.4	322.8	302.7	270.0	264.0	256.4	252.1	258.7	243.8	251.9	257.0	253.9	251.6	255.0	264.2	272.6	275.2	285.4	269.6	249.2	241.9	222.2	210.9	198.6	191.5	182.6	162.6	155.4	148.4	127.5	126.2	122.1	115.4	83.92
525.0	58.33	86.26	97.75	140.5	167.7	223.6	264.5	287.2	290.6	331.2	315.1	357.6	372.4	404.4	421.0	402.9	382.7	337.1	301.9	263.0	252.5	218.1	232.8	213.9	207.9	215.5	229.1	236.0	223.4	231.5	223.3	231.7	250.1	252.3	246.6	241.0	242.8	222.1	204.6	197.0	183.1	172.6	163.8	155.5	145.3	126.4	115.3	112.8	103.4	96.67	88.23
530.0	69.81	78.78	101.9	158.6	138.0	173.0	249.1	250.1	249.7	344.6	326.1	360.0	326.9	363.7	377.5	356.2	325.4	318.3	280.7	241.1	217.2	217.8	205.3	202.1	194.0	180.9	192.4	197.4	201.3	194.2	197.8	207.7	220.1	228.3	226.1	225.2	208.1	197.9	179.7	179.6	164.1	161.9	147.7	145.4	136.1	123.5	110.1	103.8	94.24	86.01	90.88
535.0	84.98	53.06	122.7	92.76	121.6	190.3	192.2	241.4	235.5	234.2	264.4	292.4	271.7	322.5	323.8	308.6	312.8	295.1	257.3	231.5	209.6	190.8	173.7	174.1	169.7	167.7	162.7	174.4	170.6	176.3	183.4	193.6	188.5	194.5	191.5	182.2	181.2	176.3	159.1	156.4	153.7	143.6	137.5	124.3	116.1	114.3	102.2	97.24	81.40	77.00	75.31
540.0	15.52	56.53	71.71	91.09	97.11	115.7	176.6	191.4	224.6	231.8	267.2	221.8	242.1	278.8	303.4	329.4	267.0	253.5	228.0	209.4	180.4	172.1	163.5	156.7	150.5	150.3	153.1	150.7	148.7	157.6	159.2	160.2	158.7	174.3	171.9	166.8	160.7	148.3	150.0	142.8	136.4	119.0	119.6	110.5	111.6	98.88	94.51	85.76	82.39	72.25	70.42
545.0	47.86	78.21	65.87	103.9	159.4	156.7	132.2	154.7	186.2	167.1	224.1	238.8	259.4	238.8	268.2	309.3	260.0	240.7	208.6	175.5	166.9	155.4	143.5	148.1	136.2	137.0	137.7	143.6	140.9	136.9	132.1	137.2	142.9	144.1	147.8	152.8	149.3	125.7	129.2	122.4	114.2	117.1	102.0	104.6	95.24	89.74	84.08	82.98	74.96	64.61	61.29
550.0	58.02	65.72	65.48	51.85	136.0	146.8	147.9	163.9	152.6	186.3	197.6	220.1	212.0	231.1	243.1	320.3	263.5	192.1	191.0	154.0	156.4	141.1	131.8	127.0	138.7	128.7	123.3	129.0	123.4	116.8	128.0	129.9	129.1	130.2	132.7	143.0	123.2	125.6	117.5	115.8	110.3	108.1	92.84	98.46	85.20	82.70	79.09	76.80	70.57	62.40	58.35
