Sample:	'SLABO1-5-5-320
File name:	3N5.FD3
Run Date:	15:21:44, 08/24/2022
Operator:	Administrator
Comment:	'

Instrument
Model:	F-7000 FL Spectrophotometer
Serial Number:	2354-007
ROM Version:	5J14000 06

Instrument Parameters
Measurement type:	3-D Scan
Data mode:	Fluorescence
EX  Start WL:	200.0 nm
EX  End WL:	450.0 nm
EX Sampling Interval:	5.0 nm
EM  Start WL:	280.0 nm
EM  End WL:	550.0 nm
EM Sampling Interval:	5.0 nm
Scan speed:	12000 nm/min
EX Slit:	5.0 nm
EM Slit:	5.0 nm
PMT Voltage:	700 V
Response:	Auto 
Corrected spectra:	Off
Shutter control:	On
Contour interval:	25.000

Peak integration
Integration method:	Rectangular
Sensitivity:	1
Threshold:	1.000

Peaks
No.	ApexEX/EM(nm)	Height(Data)
1	205.0/310.0	480.7
2	205.0/330.0	376.6
3	205.0/345.0	369.7
4	220.0/300.0	504.6
5	220.0/310.0	442.5
6	225.0/305.0	406.9
7	225.0/320.0	478.3
8	225.0/345.0	608.2
9	225.0/470.0	811.3
10	230.0/425.0	 1134
11	230.0/440.0	 1101
12	240.0/375.0	881.0
13	240.0/445.0	 1170
14	245.0/450.0	 1194
15	250.0/290.0	603.8
16	250.0/400.0	 1174
17	255.0/430.0	 1344
18	270.0/295.0	472.4
19	270.0/425.0	 1443
20	270.0/450.0	 1460
21	275.0/305.0	656.6
22	275.0/430.0	 1459
23	280.0/310.0	746.0
24	285.0/315.0	743.5
25	290.0/320.0	659.9
26	295.0/325.0	559.0
27	300.0/335.0	581.5
28	305.0/340.0	585.4
29	305.0/405.0	 1019
30	305.0/415.0	 1039
31	310.0/345.0	569.1
32	310.0/410.0	 1039
33	315.0/355.0	565.3
34	320.0/360.0	653.5
35	325.0/365.0	705.3
36	325.0/420.0	 1078
37	330.0/370.0	776.3
38	330.0/410.0	 1077
39	330.0/425.0	 1063
40	335.0/380.0	807.9
41	335.0/420.0	 1060
42	340.0/385.0	860.2
43	345.0/390.0	849.9
44	355.0/405.0	884.5
45	365.0/415.0	865.8
46	385.0/325.0	4.436
47	405.0/320.0	3.141
48	430.0/310.0	2.922
49	440.0/345.0	3.452
50	440.0/515.0	164.2

Data Points
	200.0	205.0	210.0	215.0	220.0	225.0	230.0	235.0	240.0	245.0	250.0	255.0	260.0	265.0	270.0	275.0	280.0	285.0	290.0	295.0	300.0	305.0	310.0	315.0	320.0	325.0	330.0	335.0	340.0	345.0	350.0	355.0	360.0	365.0	370.0	375.0	380.0	385.0	390.0	395.0	400.0	405.0	410.0	415.0	420.0	425.0	430.0	435.0	440.0	445.0	450.0
280.0	57.53	54.82	27.91	44.25	39.92	28.44	33.87	33.29	63.93	134.4	189.0	170.7	135.3	46.87	19.79	534.7	 3045	 1272	31.41	6.587	4.653	5.104	4.840	4.668	3.734	4.242	3.039	2.087	1.997	1.678	1.692	1.417	1.165	2.258	1.526	1.310	1.558	1.669	1.242	1.483	0.691	1.063	0.712	1.274	1.417	0.884	0.633	0.996	0.795	0.753	0.842
285.0	195.3	180.5	123.6	158.5	134.1	141.1	84.25	73.61	128.6	297.1	473.6	436.8	369.4	162.5	56.17	64.26	 1264	 8589	 4261	215.4	8.377	6.683	6.103	3.569	5.380	1.888	1.571	3.722	2.191	1.817	1.410	2.750	1.964	1.370	1.378	1.528	1.850	1.801	1.485	1.540	1.378	1.174	1.056	0.722	0.948	0.495	0.666	1.450	0.887	1.007	0.639
290.0	405.8	317.5	275.3	289.3	256.4	193.5	147.7	117.1	189.1	419.3	603.8	554.4	420.4	386.5	181.0	79.17	135.8	 2971	9999.9	 6408	303.0	9.440	9.765	6.946	5.481	2.971	4.045	2.854	2.381	2.211	2.978	2.657	2.480	1.744	1.280	2.397	1.226	1.513	1.842	1.696	2.205	1.691	1.301	1.699	1.697	1.017	1.163	1.066	1.863	2.010	1.600
295.0	546.6	359.0	309.7	321.0	383.0	354.6	225.7	178.1	236.3	454.2	591.5	534.1	370.7	391.8	472.4	174.8	99.47	258.9	 4362	9999.9	 8803	358.5	18.22	9.941	5.902	6.023	4.306	4.000	3.175	2.748	1.963	2.175	2.139	2.192	1.974	1.505	1.028	1.995	2.056	1.880	2.847	2.106	2.004	1.332	1.723	1.253	2.036	1.509	2.141	2.314	1.973
300.0	545.9	449.8	288.1	406.8	504.6	368.0	247.7	200.4	221.1	395.7	522.5	482.7	332.7	244.0	457.5	516.6	205.6	121.9	350.6	 4978	9999.9	9999.9	362.5	17.13	12.30	9.552	5.819	5.581	4.190	4.066	3.968	2.215	2.315	1.765	2.445	1.409	1.940	2.416	2.444	2.160	1.930	1.222	1.026	1.751	1.637	1.288	1.926	1.760	2.130	2.601	2.150
305.0	608.1	456.0	426.3	405.6	375.0	406.9	309.5	196.3	206.2	333.7	409.2	377.7	263.1	224.0	259.1	656.6	465.9	174.2	130.4	372.7	 5586	9999.9	9999.9	424.5	19.06	12.10	8.443	5.354	5.504	3.972	4.401	3.112	1.946	2.120	2.970	2.654	1.709	2.209	2.747	2.872	2.006	2.660	2.019	1.837	2.335	2.218	2.783	1.581	2.155	2.611	1.776
310.0	463.4	480.7	340.0	405.8	442.5	377.9	333.6	194.9	200.2	244.8	275.3	278.5	262.4	215.5	251.6	353.4	746.0	412.5	155.6	94.93	400.3	 5459	9999.9	9999.9	399.6	19.21	12.76	10.48	7.602	4.797	4.519	4.639	2.516	2.769	2.945	2.557	3.057	2.693	2.816	2.796	2.011	1.923	1.251	2.814	1.888	2.665	2.922	2.238	2.099	1.544	2.152
315.0	482.8	443.9	370.2	325.6	438.9	397.3	329.5	221.1	185.2	261.9	290.7	243.8	247.6	241.9	283.9	289.0	426.5	743.5	293.4	108.1	91.70	398.4	 7461	9999.9	9999.9	358.4	19.08	14.54	11.46	7.294	5.885	4.371	4.146	3.771	4.165	2.648	2.989	2.240	1.849	2.994	2.863	1.826	1.865	2.567	2.389	1.963	2.651	1.673	2.026	1.589	1.736
320.0	418.6	413.9	364.6	306.7	368.0	478.3	355.3	250.1	197.7	242.3	258.9	234.0	227.4	255.7	274.5	324.9	337.8	511.0	659.9	218.6	93.94	96.98	527.9	 8320	9999.9	9999.9	361.2	21.43	14.70	10.13	9.747	5.777	4.879	5.594	3.888	3.803	2.902	3.219	2.744	3.326	2.023	3.141	2.348	2.732	1.700	1.439	2.108	2.016	2.286	2.439	1.815
325.0	296.9	298.1	364.6	394.9	416.7	403.9	383.7	350.0	224.5	242.4	257.6	256.5	240.2	297.6	310.4	347.6	338.0	360.5	551.9	559.0	179.2	100.7	108.1	592.9	 7018	9999.9	9999.9	399.1	20.77	15.16	10.59	9.360	6.213	5.167	5.631	3.125	3.002	4.436	2.677	2.754	2.533	2.238	1.924	2.021	2.147	2.187	1.739	2.025	2.303	2.586	1.552
330.0	287.4	376.6	242.3	317.6	431.2	457.6	419.4	394.5	320.2	259.5	262.2	271.7	279.0	281.6	314.3	373.6	373.7	364.5	339.1	542.9	461.0	154.3	107.0	117.4	500.3	 6186	9999.9	9999.9	381.3	20.66	13.04	12.13	11.25	7.663	5.044	4.049	3.484	3.172	2.907	2.845	2.088	2.096	1.991	1.990	2.652	1.862	1.605	1.887	1.890	2.315	2.197
335.0	270.3	344.8	301.2	277.4	449.6	473.8	431.3	363.5	330.9	320.1	280.9	302.1	279.6	284.0	349.4	419.7	422.0	375.8	345.5	356.2	581.5	377.3	153.4	118.0	106.7	457.5	 5920	9999.9	9999.9	392.8	24.90	14.01	11.50	9.813	7.222	4.727	4.811	4.502	3.728	3.456	3.597	2.014	2.364	3.291	2.377	2.221	2.117	2.478	1.658	1.955	2.912
340.0	180.4	362.1	275.1	301.1	434.8	507.6	470.0	442.0	395.1	343.7	299.7	305.8	335.1	336.4	394.3	444.4	443.1	411.9	387.2	313.8	356.2	585.4	304.5	156.8	125.1	116.1	439.5	 6512	9999.9	9999.9	418.3	24.88	17.72	14.20	11.22	8.754	4.980	4.941	3.115	3.567	2.619	3.353	3.481	2.437	2.262	2.001	1.216	2.820	2.131	2.472	2.542
345.0	235.8	369.7	329.5	293.2	400.4	608.2	565.8	485.1	378.1	385.4	351.2	359.8	351.4	377.6	437.7	473.5	455.8	454.6	452.1	386.6	320.2	391.4	569.1	285.9	165.2	141.6	135.1	493.0	 5839	9999.9	9999.9	448.1	25.13	15.13	12.02	8.757	6.337	6.083	3.839	4.409	3.070	2.061	3.166	2.990	2.265	2.840	2.025	2.417	3.452	2.584	3.242
350.0	204.2	304.8	343.0	341.7	404.0	491.4	511.4	520.0	463.2	474.3	412.9	395.1	423.0	446.7	471.5	522.4	508.4	499.4	494.7	439.5	386.5	355.2	477.0	558.2	290.5	192.5	158.8	157.7	457.7	 5240	9999.9	9999.9	454.9	24.85	17.32	12.33	8.434	6.823	4.644	3.385	4.071	3.529	2.213	2.819	2.605	2.302	3.213	2.769	2.921	2.081	2.828
355.0	190.3	266.1	324.6	301.5	429.0	494.8	551.0	575.6	520.0	515.9	495.9	462.0	477.3	485.7	521.1	566.5	541.6	574.1	534.0	474.5	456.8	410.9	417.1	565.3	540.3	310.0	224.3	195.2	163.5	429.1	 4663	9999.9	9999.9	481.4	29.90	18.15	12.89	8.257	8.275	6.188	4.411	3.849	3.531	3.016	2.075	2.749	2.301	2.496	2.713	2.496	2.501
360.0	159.7	232.0	326.6	389.9	493.9	620.9	561.2	619.8	643.6	552.5	563.2	540.8	558.8	575.2	565.9	625.6	600.8	659.3	581.8	544.6	536.6	480.1	472.1	482.8	653.5	540.5	327.6	272.0	223.0	170.3	406.3	 5206	9999.9	9999.9	455.9	24.85	15.32	11.47	10.07	5.136	5.028	4.093	3.832	3.116	1.934	3.191	2.407	2.385	2.143	2.857	2.789
365.0	257.3	361.2	356.3	386.9	512.9	634.1	692.4	723.8	667.7	658.9	685.1	614.9	627.8	647.2	680.0	717.8	729.1	697.4	682.9	628.8	592.4	560.0	549.5	540.9	571.2	705.3	547.6	345.0	297.0	232.1	178.9	441.9	 4878	9999.9	9999.9	524.2	25.42	15.53	11.68	9.337	6.009	4.611	3.764	3.832	3.855	2.205	2.449	2.507	3.016	2.727	2.692
370.0	254.9	371.1	414.1	402.2	548.2	663.7	711.2	705.9	771.0	759.2	774.2	737.5	708.4	711.7	733.9	745.6	790.5	748.3	691.5	700.1	650.7	630.2	645.7	624.4	596.4	654.3	776.3	524.5	393.7	303.7	241.4	188.4	412.8	 4858	9999.9	9999.9	487.5	22.39	17.39	11.53	8.493	4.729	6.028	4.541	3.315	2.315	3.176	2.672	3.351	2.854	3.602
375.0	278.7	331.2	444.1	483.7	565.1	567.3	734.0	726.5	881.0	843.4	843.7	807.7	810.3	825.8	861.9	871.8	829.9	798.2	782.6	751.6	733.7	706.2	716.5	720.1	694.7	671.5	740.9	755.1	507.2	395.3	301.5	230.0	183.9	420.6	 4805	9999.9	9999.9	489.9	21.93	17.72	10.14	6.970	5.501	5.854	4.422	3.066	3.470	2.729	3.328	3.339	3.693
380.0	230.8	327.7	424.4	518.1	559.9	745.7	780.6	862.6	839.2	805.3	881.6	849.8	885.2	890.2	954.2	996.6	955.4	901.4	849.5	834.1	789.8	798.4	779.8	790.7	748.7	730.6	718.7	807.9	723.0	495.4	388.3	304.2	233.2	183.8	410.0	 4690	9999.9	9999.9	466.2	28.37	14.78	9.542	6.013	6.811	4.683	5.298	3.517	3.702	3.676	3.495	4.662
385.0	223.1	384.3	415.3	577.3	648.1	831.7	837.6	893.0	891.8	954.4	941.7	974.3	958.8	985.2	 1037	 1058	996.2	919.2	909.6	873.6	839.7	864.1	829.0	863.0	833.7	820.2	774.0	781.1	860.2	692.9	486.0	380.1	305.8	226.5	182.5	396.6	 4032	9999.9	9999.9	525.2	21.98	12.98	9.463	9.109	8.066	4.201	5.019	3.617	4.136	3.979	4.141
390.0	302.0	454.8	440.4	580.3	608.9	901.9	875.5	935.5	 1019	 1035	989.2	965.2	 1027	 1118	 1100	 1083	 1080	 1059	935.1	940.4	912.7	900.4	938.8	900.8	907.2	899.9	866.7	818.0	819.2	849.9	649.2	496.4	387.3	312.5	236.7	186.3	360.7	 3741	9999.9	9999.9	416.5	19.55	14.02	12.07	6.980	4.764	3.945	4.141	4.816	4.834	4.196
395.0	368.1	461.6	541.5	605.7	598.2	904.9	955.1	976.6	 1016	 1093	 1102	 1029	 1160	 1142	 1145	 1158	 1120	 1115	 1018	968.8	937.5	951.2	956.5	977.0	960.0	961.1	944.7	863.2	840.4	816.3	836.4	631.4	489.8	404.6	302.1	224.1	181.8	337.1	 3713	9999.9	9999.9	426.7	22.33	16.33	9.340	7.461	5.388	5.421	4.908	5.187	5.110
400.0	270.9	523.0	492.3	595.1	836.0	938.9	951.9	 1046	 1052	 1050	 1174	 1144	 1151	 1198	 1277	 1312	 1221	 1151	 1066	 1023	977.8	977.9	948.6	995.5	988.4	 1039	 1008	953.9	901.1	845.4	860.8	797.1	603.7	482.1	393.9	291.4	214.2	170.4	328.8	 4051	9999.9	9999.9	403.5	23.30	14.66	9.333	6.463	6.148	5.593	5.002	4.177
405.0	224.8	492.8	586.8	624.1	809.1	964.3	 1097	 1097	 1125	 1155	 1163	 1179	 1230	 1278	 1354	 1290	 1295	 1196	 1112	 1023	 1005	 1019	 1006	 1018	 1024	 1048	 1035	 1030	978.2	914.8	845.3	884.5	779.0	597.6	468.0	363.6	275.9	192.2	152.0	342.4	 3296	9999.9	9999.9	430.6	20.99	12.24	9.639	7.836	5.675	5.573	5.533
410.0	349.8	674.8	654.6	622.9	785.9	970.0	 1099	 1113	 1134	 1181	 1125	 1254	 1254	 1332	 1378	 1374	 1304	 1200	 1138	 1076	 1007	991.9	 1039	 1014	 1067	 1063	 1077	 1013	996.8	963.3	894.7	856.8	872.8	735.9	559.7	425.9	318.0	234.9	170.8	140.7	287.3	 3075	9999.9	9999.9	323.5	17.41	10.94	9.262	8.731	5.990	6.242
415.0	343.5	485.2	626.2	663.8	791.4	 1037	 1062	 1210	 1256	 1246	 1326	 1288	 1373	 1364	 1382	 1349	 1270	 1206	 1131	 1099	 1034	 1039	 1037	 1020	 1050	 1078	 1059	 1042	 1026	991.9	920.8	864.2	849.9	865.8	663.3	474.3	397.8	295.6	209.5	162.1	119.5	267.8	 2998	9999.9	9999.9	311.6	16.15	11.07	8.044	7.274	6.223
420.0	331.4	491.0	629.0	662.5	846.4	985.8	 1078	 1166	 1219	 1245	 1222	 1283	 1349	 1385	 1417	 1422	 1325	 1244	 1165	 1101	 1014	 1015	 1007	 1045	 1050	 1078	 1040	 1060	 1026	985.4	947.8	893.9	823.1	848.3	775.1	572.3	448.1	342.6	255.9	196.8	143.7	112.1	260.8	 3496	9999.9	 8599	286.0	17.90	13.11	8.982	8.981
425.0	298.2	525.5	598.3	727.9	839.2	 1029	 1134	 1092	 1077	 1222	 1293	 1287	 1360	 1400	 1443	 1410	 1316	 1293	 1130	 1050	 1015	 1001	986.6	 1029	 1027	 1009	 1063	 1042	 1053	990.0	966.7	900.0	849.8	804.8	793.5	682.2	503.7	376.1	295.5	223.0	176.0	113.2	106.4	288.0	 2926	9999.9	 8942	254.1	16.45	13.44	8.833
430.0	354.2	483.4	543.0	687.5	925.7	 1002	 1047	 1123	 1161	 1223	 1328	 1344	 1284	 1404	 1377	 1459	 1404	 1258	 1149	 1084	990.4	955.9	994.2	987.1	 1014	 1002	 1033	 1041	997.3	990.5	941.5	917.5	887.0	810.5	753.9	725.6	591.8	426.4	333.4	266.6	204.7	161.1	120.7	97.92	249.6	 2722	9999.9	 8304	239.7	14.48	12.55
435.0	324.3	488.7	566.6	739.9	852.6	967.5	979.5	 1098	 1183	 1203	 1240	 1274	 1383	 1376	 1437	 1440	 1359	 1236	 1152	 1079	997.3	943.4	921.7	974.2	972.8	990.3	984.3	 1005	984.3	964.4	936.8	914.6	882.1	837.3	751.3	699.0	646.9	501.3	383.0	304.0	239.7	187.2	146.2	117.6	96.86	231.9	 2688	9999.9	 8006	224.2	16.14
440.0	339.0	456.1	486.0	697.2	863.7	995.1	 1101	 1065	 1102	 1168	 1221	 1342	 1358	 1357	 1416	 1402	 1346	 1223	 1142	 1034	971.0	944.7	934.5	943.6	944.1	953.9	985.8	986.6	934.6	955.2	925.9	916.4	872.2	842.3	765.5	685.4	637.0	582.2	437.6	345.4	273.9	219.5	170.4	133.9	108.6	92.58	230.9	 2710	9999.9	 8375	191.2
445.0	360.4	345.8	445.3	714.1	733.6	932.3	 1015	 1133	 1170	 1146	 1158	 1241	 1362	 1363	 1399	 1360	 1324	 1199	 1126	 1023	952.9	900.0	896.5	898.3	894.3	928.8	919.1	921.7	935.4	916.3	900.6	878.8	841.8	827.2	775.4	696.4	606.2	590.5	490.4	379.8	293.0	244.6	193.7	159.3	125.9	101.7	88.30	229.1	 2742	9999.9	 6680
450.0	415.2	492.2	623.5	590.8	692.0	832.6	932.6	967.4	971.1	 1194	 1113	 1251	 1302	 1332	 1460	 1371	 1265	 1208	 1080	980.4	931.2	881.6	863.9	881.1	850.4	874.1	891.6	865.7	879.3	870.2	866.7	858.0	818.1	818.5	737.4	706.4	596.0	531.3	505.1	425.0	331.7	274.0	224.6	181.4	151.8	113.7	93.27	90.05	224.7	 2732	9999.9
455.0	244.1	433.1	578.6	602.5	682.2	773.8	896.9	900.7	991.0	 1027	 1043	 1184	 1270	 1246	 1326	 1357	 1227	 1142	 1055	954.6	917.3	850.0	824.0	800.5	815.2	820.0	819.2	826.8	842.3	846.3	827.8	808.1	816.3	783.5	739.4	654.8	587.8	516.4	489.5	477.5	365.0	289.9	247.4	205.3	165.5	135.0	114.5	95.24	78.17	221.0	 2649
460.0	235.4	414.4	558.5	569.4	693.9	680.9	857.0	855.4	945.3	977.5	 1046	 1094	 1157	 1219	 1281	 1308	 1244	 1160	995.9	928.4	863.6	827.0	794.2	755.3	770.5	761.1	763.7	795.0	768.8	766.7	749.1	785.8	759.5	747.4	699.2	661.8	588.9	525.6	468.6	439.1	412.2	319.0	263.7	227.2	181.8	157.0	126.5	104.9	81.46	76.68	214.4
465.0	289.2	323.0	448.9	476.9	625.5	680.4	734.2	780.8	899.9	957.2	 1040	 1048	 1146	 1210	 1252	 1168	 1159	 1077	978.7	874.7	787.6	773.5	745.7	715.8	716.4	728.1	723.4	721.6	726.5	711.7	709.4	725.7	708.0	695.4	669.1	632.6	568.4	502.2	461.5	412.8	399.4	355.6	280.8	228.9	201.6	163.3	142.3	121.3	91.05	75.35	75.68
470.0	275.9	235.8	395.7	438.9	580.9	811.3	771.8	802.1	862.6	916.6	969.3	996.8	 1048	 1119	 1146	 1174	 1101	 1016	889.4	805.7	762.4	741.2	693.7	671.8	673.3	681.5	653.9	677.9	659.0	662.7	654.3	672.9	676.4	651.8	643.5	595.8	524.2	500.4	430.8	383.6	352.5	352.4	304.0	238.3	204.1	179.1	150.3	128.0	110.1	85.96	68.84
475.0	197.8	290.0	390.7	414.1	520.6	605.5	636.3	742.7	736.4	859.4	922.3	955.5	949.1	 1002	 1038	 1091	 1031	940.1	837.4	800.9	708.5	644.6	635.3	620.7	618.8	605.9	601.5	626.3	618.4	599.6	609.3	613.4	612.6	611.6	579.5	554.0	516.5	457.2	426.5	376.1	340.1	333.4	315.3	267.2	214.7	182.4	165.6	139.5	121.8	100.2	78.69
480.0	142.4	245.3	390.1	467.5	459.3	573.0	694.9	709.3	700.1	850.1	857.3	877.1	880.0	979.5	 1067	 1008	992.1	882.8	793.7	736.3	678.4	622.0	598.4	579.1	561.8	571.5	555.0	562.3	558.9	566.3	566.9	569.3	579.0	567.7	557.7	535.1	478.7	446.2	408.4	366.3	335.1	310.9	292.0	287.9	230.5	199.0	162.7	144.8	128.3	109.1	87.39
485.0	210.9	231.3	395.2	423.3	379.7	522.1	598.6	690.1	688.9	801.3	836.9	848.8	894.1	891.0	958.6	974.4	936.4	879.1	782.1	703.2	628.3	597.1	572.2	558.4	527.3	543.2	532.8	542.0	539.3	515.0	520.8	538.2	548.0	536.1	539.4	498.8	465.2	426.1	386.4	362.5	321.4	298.3	274.0	277.1	249.0	212.9	178.5	150.0	138.2	117.6	94.51
490.0	186.7	302.4	348.4	417.1	407.7	450.2	552.9	585.0	675.1	677.5	720.6	799.7	839.9	909.6	969.9	956.8	908.6	835.1	731.3	654.1	634.7	582.3	545.9	527.0	515.4	488.7	499.9	483.8	491.4	493.1	474.6	487.7	514.4	528.4	496.3	465.8	444.5	391.7	373.4	354.7	317.5	284.0	273.6	254.2	253.5	218.2	180.9	161.1	142.5	123.0	104.1
495.0	213.2	166.2	283.2	339.9	394.4	443.6	526.7	595.7	604.9	727.1	741.7	760.0	778.3	843.6	861.2	870.7	865.9	775.0	713.3	605.5	585.9	538.9	517.6	492.8	478.8	457.3	463.4	458.3	466.3	449.8	444.7	458.3	463.5	462.0	463.1	437.7	418.6	369.6	357.0	333.9	293.0	279.9	257.6	233.2	234.1	224.1	194.3	160.7	145.3	130.2	116.1
500.0	141.0	232.6	304.8	326.8	444.3	420.5	496.8	505.2	593.6	681.5	638.9	712.9	725.0	776.7	798.5	840.9	807.6	743.1	655.3	578.5	527.3	505.3	475.6	446.0	451.2	423.1	431.5	432.0	426.4	440.1	415.4	422.7	418.2	444.7	416.1	411.7	376.8	350.7	335.8	311.6	282.0	260.4	247.7	226.7	214.7	221.2	210.5	172.6	142.5	131.0	123.0
505.0	176.4	259.3	276.5	238.1	364.5	380.9	481.3	480.3	541.3	604.8	628.5	654.6	624.3	679.5	740.6	770.7	751.0	689.2	607.1	569.4	472.8	471.8	437.4	433.0	423.9	396.4	381.5	380.8	374.5	381.4	386.9	381.4	396.7	383.3	388.9	377.8	349.2	340.4	312.9	287.5	270.0	251.5	230.1	221.9	204.2	197.0	191.4	180.5	149.4	128.2	113.8
510.0	87.14	220.8	254.4	215.8	321.6	364.3	452.4	474.5	517.6	534.5	540.7	584.9	617.0	656.5	707.6	708.5	650.2	626.3	586.3	508.9	468.1	424.2	399.4	410.2	373.6	367.0	355.5	342.9	343.5	334.8	335.6	342.9	363.0	355.2	357.0	353.2	321.6	304.9	286.2	267.6	252.8	235.7	214.1	207.1	196.1	185.9	175.4	177.9	157.5	134.2	116.5
515.0	134.6	188.6	242.7	234.9	316.7	344.5	375.0	401.9	436.8	512.3	545.0	560.7	564.1	604.4	625.8	643.4	593.5	582.3	515.8	463.2	428.8	398.0	388.0	369.5	350.6	334.4	348.0	327.4	323.4	318.5	303.4	321.9	322.4	327.6	327.6	310.0	292.3	277.1	263.6	246.4	238.3	217.9	210.1	194.5	176.1	172.0	160.6	155.9	164.2	134.4	114.7
520.0	103.8	159.2	263.1	286.4	282.9	306.8	382.9	400.2	424.9	430.7	460.9	478.8	512.8	534.0	548.2	575.2	549.9	521.4	506.2	429.3	372.9	358.2	349.0	333.4	317.4	302.1	293.2	303.7	280.4	283.6	280.6	287.6	293.0	300.0	295.6	296.0	267.8	247.5	252.1	230.8	213.2	197.6	188.2	183.8	168.4	160.3	149.0	141.4	143.5	139.6	113.3
525.0	89.97	168.8	193.1	149.6	201.4	311.3	306.4	327.4	388.7	429.6	431.1	430.6	480.7	495.7	506.1	532.9	523.1	474.2	433.0	395.6	367.7	333.1	316.9	290.4	283.6	275.9	263.8	261.0	254.2	257.0	256.0	255.5	278.5	275.7	262.6	268.4	243.2	224.1	216.6	204.5	193.9	196.0	172.1	164.7	155.0	142.6	139.9	129.9	126.4	134.0	121.1
530.0	111.0	144.8	161.4	197.4	210.6	255.2	268.2	334.7	338.5	367.9	404.6	404.6	426.7	479.4	472.7	502.8	438.5	409.8	392.5	364.6	328.7	307.7	285.0	270.3	244.2	252.3	248.9	240.6	227.0	232.1	227.9	227.4	235.3	247.6	252.2	236.6	216.9	209.3	201.5	189.7	180.9	169.2	158.0	145.7	148.4	138.6	126.8	121.4	116.2	112.5	119.9
535.0	122.4	96.63	151.8	195.8	234.0	225.3	247.1	268.4	279.7	342.0	340.0	342.9	387.1	399.8	477.4	464.8	421.7	392.7	364.1	312.8	289.9	274.5	263.0	252.6	227.0	229.1	224.2	220.9	212.1	210.5	207.5	207.5	215.4	209.9	206.4	213.3	196.6	193.8	183.6	168.7	165.0	147.7	141.9	137.6	130.5	123.6	116.8	109.3	108.6	103.4	105.6
540.0	77.84	128.6	121.2	155.3	158.0	202.7	198.4	271.6	257.2	323.6	320.4	320.9	350.6	379.7	425.2	393.9	384.0	365.8	316.5	275.0	259.5	243.3	230.8	221.0	203.7	194.1	199.3	175.7	180.0	186.9	174.8	188.1	191.2	185.7	191.5	184.3	174.0	160.5	167.7	149.0	138.4	133.7	131.6	125.3	120.5	111.4	109.4	99.90	98.65	92.23	90.04
545.0	37.22	106.8	100.6	142.9	146.9	178.8	162.9	228.4	219.2	241.9	292.5	277.7	338.7	344.5	386.9	439.2	370.3	324.4	280.0	268.0	241.2	208.4	210.1	209.4	185.2	177.6	169.8	167.5	161.1	169.5	159.8	164.3	168.7	165.7	161.1	158.7	154.6	150.0	140.6	136.6	128.4	122.7	111.5	107.2	106.8	101.4	93.76	91.71	85.35	83.66	78.33
550.0	77.88	85.21	119.3	108.4	121.3	177.7	179.1	211.8	226.9	232.8	260.6	269.6	307.6	296.5	339.0	438.0	332.2	302.6	269.9	243.9	227.8	196.3	186.9	185.0	171.3	160.2	151.6	149.0	156.0	140.6	148.1	148.7	148.3	152.8	147.4	148.7	142.5	140.4	129.3	122.0	117.1	111.8	106.7	100.4	95.96	92.25	87.64	84.53	76.88	78.20	73.06
