Sample:	'SLABO1-5-5-320
File name:	3N6.FD3
Run Date:	15:25:57, 08/24/2022
Operator:	Administrator
Comment:	'

Instrument
Model:	F-7000 FL Spectrophotometer
Serial Number:	2354-007
ROM Version:	5J14000 06

Instrument Parameters
Measurement type:	3-D Scan
Data mode:	Fluorescence
EX  Start WL:	200.0 nm
EX  End WL:	450.0 nm
EX Sampling Interval:	5.0 nm
EM  Start WL:	280.0 nm
EM  End WL:	550.0 nm
EM Sampling Interval:	5.0 nm
Scan speed:	12000 nm/min
EX Slit:	5.0 nm
EM Slit:	5.0 nm
PMT Voltage:	700 V
Response:	Auto 
Corrected spectra:	Off
Shutter control:	On
Contour interval:	25.000

Peak integration
Integration method:	Rectangular
Sensitivity:	1
Threshold:	1.000

Peaks
No.	ApexEX/EM(nm)	Height(Data)
1	205.0/530.0	109.5
2	210.0/470.0	240.2
3	210.0/520.0	182.9
4	210.0/545.0	102.4
5	215.0/515.0	196.7
6	220.0/300.0	807.4
7	220.0/510.0	221.0
8	225.0/330.0	575.7
9	230.0/345.0	747.2
10	230.0/370.0	693.4
11	235.0/355.0	718.4
12	235.0/365.0	701.1
13	235.0/400.0	787.6
14	240.0/390.0	772.1
15	240.0/405.0	807.3
16	240.0/420.0	857.0
17	240.0/530.0	238.1
18	245.0/400.0	817.3
19	245.0/415.0	859.8
20	250.0/395.0	788.2
21	250.0/410.0	844.4
22	250.0/435.0	867.6
23	255.0/380.0	695.5
24	255.0/400.0	796.7
25	255.0/445.0	799.9
26	260.0/420.0	843.6
27	265.0/290.0	324.3
28	265.0/410.0	852.3
29	265.0/430.0	885.4
30	265.0/440.0	867.9
31	265.0/450.0	840.4
32	270.0/300.0	503.0
33	270.0/415.0	852.7
34	270.0/455.0	816.8
35	270.0/490.0	565.8
36	275.0/305.0	676.7
37	275.0/405.0	832.8
38	275.0/425.0	866.6
39	275.0/450.0	863.4
40	280.0/310.0	714.9
41	280.0/400.0	809.0
42	280.0/420.0	829.5
43	285.0/315.0	740.5
44	290.0/320.0	659.1
45	295.0/325.0	554.7
46	300.0/335.0	567.5
47	305.0/340.0	556.7
48	305.0/420.0	666.3
49	305.0/430.0	631.6
50	310.0/345.0	540.8
51	315.0/350.0	510.8
52	315.0/395.0	655.3
53	315.0/420.0	677.9
54	320.0/360.0	557.4
55	320.0/410.0	679.0
56	325.0/365.0	590.8
57	325.0/420.0	679.5
58	330.0/370.0	625.1
59	330.0/415.0	674.5
60	335.0/380.0	602.6
61	335.0/425.0	657.1
62	340.0/385.0	623.2
63	345.0/390.0	614.9
64	350.0/395.0	585.9
65	355.0/315.0	3.576
66	355.0/405.0	572.3
67	360.0/410.0	565.6
68	365.0/415.0	552.4
69	370.0/320.0	3.118
70	375.0/290.0	2.028
71	375.0/430.0	492.6
72	385.0/330.0	3.008
73	395.0/295.0	2.967
74	420.0/490.0	168.4
75	425.0/495.0	153.4
76	430.0/500.0	135.5
77	440.0/295.0	3.182
78	445.0/300.0	3.391
79	445.0/330.0	3.133
80	445.0/350.0	3.181
81	445.0/370.0	3.076

Data Points
	200.0	205.0	210.0	215.0	220.0	225.0	230.0	235.0	240.0	245.0	250.0	255.0	260.0	265.0	270.0	275.0	280.0	285.0	290.0	295.0	300.0	305.0	310.0	315.0	320.0	325.0	330.0	335.0	340.0	345.0	350.0	355.0	360.0	365.0	370.0	375.0	380.0	385.0	390.0	395.0	400.0	405.0	410.0	415.0	420.0	425.0	430.0	435.0	440.0	445.0	450.0
280.0	125.5	89.26	53.76	55.67	78.98	91.93	45.25	28.24	9.927	33.96	49.81	74.84	45.08	22.82	11.50	262.6	 1551	821.9	30.18	3.827	2.868	3.179	1.832	1.973	0.915	2.027	1.442	0.604	0.553	1.314	1.127	0.554	0.960	0.746	1.164	0.648	0.784	0.938	0.935	0.944	0.818	0.655	0.639	0.761	0.732	0.595	0.489	1.070	1.288	0.626	0.451
285.0	338.3	297.5	207.9	247.1	346.9	216.2	151.4	57.71	36.09	63.18	89.44	119.1	199.8	112.3	50.48	50.49	591.3	 4008	 2745	196.2	4.627	3.434	2.887	1.823	2.323	1.316	0.656	1.603	1.755	2.132	1.107	1.835	0.617	1.075	0.745	1.802	0.975	1.110	1.411	1.545	1.582	1.337	1.077	1.311	0.951	1.314	1.128	1.070	1.180	1.160	1.101
290.0	694.2	536.4	483.2	426.5	514.3	467.7	242.5	127.6	82.54	103.4	146.6	138.1	223.7	324.3	174.9	89.45	87.74	 1241	 7294	 4473	235.1	6.830	7.131	4.512	2.900	2.390	0.982	1.113	1.381	1.062	1.118	1.009	1.281	1.182	0.833	2.028	0.390	1.061	1.327	2.072	1.590	0.925	1.219	1.990	1.168	1.741	1.627	2.030	2.185	2.035	2.210
295.0	 1018	672.4	583.5	658.5	710.5	676.7	402.4	167.0	118.8	139.1	176.6	174.8	176.8	317.0	460.4	221.5	103.5	148.0	 2066	9999.9	 5227	284.7	6.895	6.875	4.932	2.735	3.037	2.212	2.743	2.167	0.834	1.245	1.198	0.840	1.022	1.134	1.556	1.460	2.247	2.967	2.164	1.540	1.466	2.329	2.006	2.167	2.164	1.866	3.182	2.001	2.668
300.0	 1045	675.2	594.2	619.7	807.4	639.2	481.0	261.4	147.3	143.8	151.3	182.6	205.9	230.5	503.0	497.5	217.5	114.1	188.9	 2589	9999.9	 6036	288.7	8.047	5.172	4.492	2.622	2.534	2.466	2.181	1.308	2.607	2.123	1.647	1.003	0.996	2.046	1.343	2.085	2.427	2.665	1.688	1.494	2.539	1.567	1.825	2.704	2.099	2.669	3.391	2.260
305.0	 1074	646.1	566.0	572.7	749.0	666.8	555.8	242.1	157.6	150.5	169.9	186.1	218.4	256.8	300.5	676.7	498.4	211.8	102.8	213.9	 2547	9999.9	 6296	305.4	8.410	5.379	4.523	4.835	3.116	1.980	1.431	2.616	1.307	1.941	1.332	1.792	1.564	2.172	2.553	2.590	2.407	1.956	2.418	2.034	1.811	2.398	2.358	2.167	2.215	3.030	2.831
310.0	892.4	657.7	591.6	562.8	579.4	588.2	441.9	254.9	209.0	177.8	189.3	193.1	204.5	213.4	289.6	372.9	714.9	398.6	133.2	78.52	204.3	 2617	9999.9	 6497	315.1	10.40	8.409	5.581	3.318	3.709	1.942	1.845	1.339	1.244	1.990	1.523	1.920	1.194	2.038	1.655	2.428	1.950	1.821	1.634	2.699	2.100	2.013	2.396	2.795	2.479	2.149
315.0	627.9	466.2	429.4	569.6	570.3	476.1	453.9	300.1	218.5	209.8	185.5	185.8	181.1	217.0	300.7	325.5	450.5	740.5	292.5	108.0	77.36	211.3	 3031	9999.9	 6445	291.3	8.794	6.973	6.763	5.049	1.421	3.576	2.197	1.693	1.378	1.262	2.044	1.810	2.060	1.426	1.675	1.908	1.051	1.523	1.606	1.509	2.096	2.299	2.686	2.279	2.632
320.0	534.5	398.7	415.6	425.8	418.2	484.8	443.7	285.6	221.7	168.3	183.8	194.6	216.2	270.0	308.7	362.1	361.2	522.3	659.1	218.6	87.24	80.15	246.6	 2902	9999.9	 7188	272.1	11.36	6.319	6.155	3.898	2.169	2.492	1.810	3.118	1.243	1.384	2.225	1.396	1.546	1.837	2.164	1.118	1.525	1.210	2.283	2.146	1.747	2.275	1.939	2.361
325.0	445.0	366.8	390.5	419.5	458.2	566.5	544.5	382.4	274.5	197.6	180.9	227.9	245.2	273.6	308.4	366.2	353.4	352.9	541.1	554.7	162.5	91.49	87.37	234.1	 2833	9999.9	 6522	291.5	9.160	7.949	5.042	3.173	2.706	2.713	1.928	2.075	2.683	1.735	1.859	0.990	1.748	1.666	2.033	1.494	2.235	1.552	2.147	2.257	2.581	2.588	3.309
330.0	292.6	294.0	362.5	368.1	508.1	575.7	532.5	462.1	337.6	250.1	203.7	246.5	250.2	283.4	322.5	366.9	398.7	336.9	321.7	543.9	428.0	152.1	97.91	83.69	225.5	 3198	9999.9	 7091	272.6	11.16	8.242	5.488	4.486	2.515	2.848	1.608	1.755	3.008	1.914	1.636	1.992	1.794	1.151	1.423	1.591	2.154	2.377	1.943	2.495	3.133	2.071
335.0	298.0	295.6	316.0	310.4	476.0	573.2	591.5	523.3	355.1	272.8	241.6	237.4	243.9	293.6	369.1	383.0	415.6	377.8	315.3	320.0	567.5	368.6	141.2	99.77	89.07	255.0	 2864	9999.9	 6331	273.8	8.771	7.144	6.533	4.261	2.492	2.606	1.661	2.526	1.400	1.922	1.943	1.689	2.316	1.494	1.377	1.591	1.877	2.247	1.817	1.660	2.270
340.0	297.0	295.9	360.4	406.3	418.1	573.1	674.1	631.7	456.0	284.3	285.4	283.2	321.6	332.8	360.2	399.1	438.5	400.6	361.3	300.1	338.3	556.7	306.4	129.3	100.6	87.09	237.7	 2700	9999.9	 7817	270.5	9.270	7.574	5.403	4.812	3.372	3.147	1.962	1.771	2.374	2.032	1.381	2.154	1.873	1.783	2.033	1.608	1.799	1.492	2.852	2.597
345.0	165.0	265.6	276.2	341.3	440.4	589.7	747.2	678.8	488.6	359.9	325.4	296.2	295.9	340.9	399.7	463.8	464.5	454.4	395.0	315.8	291.2	353.9	540.8	248.2	120.8	108.8	99.30	230.2	 2448	9999.9	 6499	282.3	10.73	6.564	8.023	4.017	3.175	2.858	2.560	1.162	1.865	1.436	1.853	1.641	1.048	1.737	2.164	2.210	1.908	2.308	2.340
350.0	120.3	228.0	317.4	405.7	435.1	540.9	629.6	637.5	519.8	440.6	363.0	336.5	366.2	393.8	429.0	478.6	459.4	472.8	451.5	368.0	342.9	307.2	433.3	510.8	227.2	136.1	119.3	104.3	215.6	 2858	9999.9	 6768	276.1	10.24	8.710	6.648	4.526	3.655	1.715	1.928	1.761	1.671	1.564	1.443	1.494	1.759	1.143	2.449	2.354	3.181	2.375
355.0	136.3	219.6	298.2	422.0	487.0	562.7	666.7	718.4	539.4	512.4	413.9	361.7	393.4	430.7	492.1	493.3	508.3	467.7	486.5	420.1	376.0	328.0	330.4	485.5	479.8	220.4	177.8	133.4	108.1	251.2	 2305	9999.9	 6824	274.9	11.08	8.977	5.809	2.461	2.590	2.360	2.161	1.922	2.043	1.826	1.467	2.414	1.583	1.635	2.417	3.160	3.164
360.0	143.7	155.6	295.2	375.4	401.1	578.1	635.3	678.3	598.0	513.6	467.1	481.3	470.2	520.9	519.4	537.8	561.7	508.4	516.1	463.5	415.4	376.8	356.3	386.6	557.4	429.1	244.0	182.8	146.3	110.0	218.0	 2468	9999.9	 6637	262.9	9.251	6.533	5.418	3.803	2.909	2.200	1.629	2.069	1.356	1.990	2.162	2.389	1.246	2.007	1.970	3.105
365.0	144.3	265.8	298.9	332.9	412.8	606.0	605.2	701.1	676.9	563.9	488.4	525.0	516.0	519.6	601.0	560.6	611.1	571.1	551.3	496.2	450.0	442.1	417.3	397.2	422.8	590.8	405.5	243.1	194.0	152.4	115.3	228.0	 2262	9999.9	 6938	262.6	12.07	6.521	3.972	4.941	2.675	2.715	1.466	1.933	1.744	2.311	3.027	1.854	2.102	2.603	2.711
370.0	141.4	218.9	321.0	347.1	414.5	549.8	693.4	676.8	638.0	593.0	603.2	568.5	580.8	580.0	612.2	623.0	601.6	623.7	570.0	533.6	503.9	488.5	470.2	460.4	420.2	501.2	625.1	383.1	247.6	197.1	144.9	109.9	209.4	 2334	9999.9	 6444	274.5	9.216	5.567	4.576	3.714	2.661	2.303	2.027	1.879	2.418	2.248	2.055	2.401	3.076	3.068
375.0	172.1	312.6	253.0	396.0	392.3	600.5	692.0	647.2	667.4	655.1	642.9	625.9	608.9	641.8	651.0	684.9	662.4	638.9	589.4	576.8	562.0	529.0	512.8	503.0	468.2	461.7	560.9	580.1	343.8	255.7	193.3	137.4	107.7	215.7	 2308	9999.9	 6875	254.4	9.622	5.790	4.457	3.247	2.646	2.223	2.110	3.334	2.317	2.053	2.248	2.063	2.893
380.0	186.4	258.5	322.2	397.3	458.9	517.4	603.1	695.4	657.2	683.5	687.0	695.5	622.0	651.1	650.5	695.3	696.2	676.6	627.1	595.4	585.0	561.6	554.3	548.1	546.4	507.8	500.7	602.6	535.5	321.6	249.1	172.5	136.0	100.1	212.4	 2211	9999.9	 5755	225.3	8.434	7.305	4.687	3.478	2.737	2.389	2.894	2.244	2.226	2.229	2.339	2.293
385.0	188.4	217.0	344.8	376.6	440.7	585.0	696.7	707.5	696.3	682.4	705.9	633.7	695.6	668.6	691.2	679.2	681.1	686.9	653.6	640.0	593.4	582.9	589.0	585.1	573.5	540.6	509.0	506.6	623.2	479.4	298.8	238.5	176.8	127.6	100.3	202.7	 2006	9999.9	 5174	225.0	9.450	7.359	4.848	3.813	2.961	2.691	2.401	2.631	2.042	2.112	1.726
390.0	135.7	242.5	386.2	379.4	534.0	528.2	670.0	713.9	772.1	749.8	756.6	713.9	734.4	701.2	701.5	672.9	711.4	695.6	676.1	650.1	620.5	641.5	607.3	600.5	584.2	584.7	569.8	521.7	533.6	614.9	431.3	280.9	229.0	170.4	135.4	100.9	191.2	 1825	 9009	 4969	201.9	9.677	6.487	3.703	2.994	3.798	2.799	3.170	2.187	2.163	2.337
395.0	157.3	253.4	353.7	363.7	515.4	634.5	696.6	671.5	735.6	788.1	788.2	756.4	748.0	703.0	782.0	779.0	740.1	736.0	699.7	652.9	626.4	658.0	631.1	655.3	629.6	619.1	589.9	548.3	526.5	552.6	585.9	390.3	279.9	226.7	175.4	131.2	98.89	174.6	 1710	 8781	 5347	193.1	8.256	5.802	4.635	5.215	3.515	2.677	3.402	2.986	2.974
400.0	259.6	249.1	413.8	487.5	529.5	681.4	652.5	787.6	751.7	817.3	757.5	796.7	767.4	786.3	766.1	804.9	809.0	760.1	706.4	683.0	655.6	661.7	656.6	650.4	638.4	650.2	632.2	592.7	568.1	520.1	570.8	527.0	377.2	279.9	215.4	174.5	124.3	93.53	165.4	 1647	 9718	 4980	168.2	8.445	4.837	6.988	3.545	2.879	2.817	3.118	2.287
405.0	184.8	280.3	322.6	437.8	581.3	706.0	715.4	759.9	807.3	797.1	786.9	756.4	787.4	777.4	783.3	832.8	795.2	771.4	715.5	694.8	667.5	672.3	663.9	655.1	650.2	664.5	651.0	626.0	580.4	544.3	529.0	572.3	494.7	337.5	274.0	210.5	153.9	115.3	89.38	166.3	 1824	 9024	 3872	149.6	8.070	6.955	5.394	3.465	3.348	2.792	2.700
410.0	207.0	272.5	422.8	391.2	465.9	643.2	688.0	738.8	776.1	788.6	844.4	773.9	808.4	852.3	818.1	830.2	774.4	756.5	756.0	696.2	654.2	652.2	655.5	655.0	679.0	665.1	661.3	638.1	602.3	564.1	533.8	520.9	565.6	474.4	324.8	254.7	195.4	148.1	109.4	85.79	171.0	 1712	 6796	 3622	137.6	8.365	5.614	4.457	3.539	3.887	3.156
415.0	181.6	284.1	386.9	570.9	559.4	652.2	668.6	744.1	783.9	859.8	823.5	812.6	813.4	844.9	852.7	826.0	795.3	778.4	729.8	667.9	674.3	655.1	659.8	663.6	669.2	660.8	674.5	658.9	626.4	596.4	544.4	509.3	515.7	552.4	410.5	288.9	230.1	181.2	137.2	94.60	75.40	160.3	 1295	 6422	 3356	161.4	9.274	5.550	3.591	3.418	3.545
420.0	257.4	250.0	378.3	536.9	575.1	632.3	732.5	782.9	857.0	802.3	823.4	797.7	843.6	828.0	783.0	825.8	829.5	763.9	717.5	673.2	649.0	666.3	638.0	677.9	637.8	679.5	658.4	644.2	616.1	594.6	572.3	522.6	510.1	531.4	520.1	346.4	252.6	209.6	154.6	119.9	85.57	68.93	124.9	 1249	 5987	 3987	119.4	6.114	4.970	4.846	4.111
425.0	174.3	201.7	389.4	337.0	571.2	589.8	707.8	732.8	754.1	769.8	807.5	814.6	779.0	859.3	795.4	866.6	791.6	766.4	706.4	664.2	654.1	617.7	606.5	649.2	622.7	639.2	643.9	657.1	620.3	588.8	602.3	557.4	509.7	474.3	510.0	463.1	303.1	229.4	179.3	143.7	107.5	78.65	63.45	120.7	 1142	 6930	 3493	100.7	8.004	5.704	3.957
430.0	189.8	287.2	395.1	450.2	626.9	623.2	669.3	760.6	752.1	778.3	814.2	816.7	832.4	885.4	853.8	853.2	829.3	748.2	709.7	647.7	612.5	631.6	588.1	628.4	617.7	623.5	631.3	636.3	615.7	586.0	588.4	557.3	524.6	486.5	473.9	492.6	387.8	257.8	213.9	166.3	121.8	92.27	66.34	58.16	110.9	 1301	 6646	 2773	102.5	6.717	5.318
435.0	164.3	326.2	402.8	420.1	537.8	624.5	694.4	697.5	777.7	744.8	867.6	807.3	829.8	831.7	810.8	853.4	810.8	770.3	702.8	635.3	638.0	607.3	595.7	614.6	615.6	616.5	635.5	614.9	604.1	606.9	592.9	575.2	536.1	497.0	454.4	443.2	448.3	319.1	229.7	178.0	146.9	113.7	82.76	66.67	51.96	120.5	 1301	 5324	 3197	89.39	7.733
440.0	262.0	254.7	301.9	393.2	513.1	561.4	627.8	655.2	778.1	811.8	826.1	785.0	772.5	867.9	834.8	829.6	799.8	752.1	705.1	623.8	606.1	577.5	552.4	592.3	595.0	574.7	608.0	594.8	610.7	580.0	567.9	544.0	517.4	506.6	486.0	422.1	419.2	384.3	276.7	207.6	170.1	132.0	102.0	82.80	58.42	51.01	115.6	 1117	 6430	 2594	74.61
445.0	144.3	246.4	365.1	403.6	500.1	562.5	517.3	644.3	712.8	729.2	772.1	799.9	775.4	791.6	829.6	835.3	782.2	747.5	671.0	622.0	588.2	563.5	566.4	553.1	564.7	542.1	572.2	569.4	569.3	559.4	532.1	531.5	530.4	504.9	467.4	418.4	386.0	370.9	325.3	229.6	181.2	151.9	114.8	85.79	71.05	59.49	51.47	102.0	 1308	 5013	 2250
450.0	217.7	279.3	355.8	438.5	440.9	554.9	578.8	598.5	687.4	740.4	763.8	796.0	784.7	840.4	792.0	863.4	758.9	695.5	636.3	569.3	568.5	536.0	532.1	510.0	541.7	529.7	525.5	530.5	551.0	539.5	523.5	516.0	510.3	500.7	454.8	416.5	370.7	338.6	341.7	278.1	202.7	156.4	132.2	101.1	85.56	72.10	57.21	43.88	112.7	 1030	 5070
455.0	197.2	265.3	317.3	372.2	404.4	484.0	523.5	663.4	626.8	703.1	737.5	712.2	761.3	786.0	816.8	770.1	747.8	674.9	653.1	564.4	528.5	516.2	507.6	489.1	509.5	508.2	503.2	496.2	506.8	511.0	512.5	503.0	491.7	473.1	444.9	423.5	368.2	325.2	316.4	305.3	234.1	180.7	141.3	122.8	95.05	77.76	64.54	49.97	44.55	95.90	 1062
460.0	137.9	228.7	302.6	342.0	380.5	406.5	591.2	590.2	615.4	620.2	677.8	708.5	694.9	771.5	811.8	736.5	734.8	678.1	584.8	546.3	493.6	485.3	469.5	460.7	456.7	470.6	473.6	464.1	478.6	474.0	461.7	485.3	475.7	449.5	441.6	409.1	363.3	317.2	282.2	276.5	267.6	208.3	155.3	133.3	108.8	87.46	75.67	58.19	43.89	45.14	95.08
465.0	155.7	212.6	222.1	294.9	378.7	425.0	467.5	511.5	586.7	596.1	639.6	666.6	674.9	680.4	715.2	694.4	666.2	621.6	564.6	513.6	471.2	451.2	434.6	434.5	420.1	427.0	425.1	451.5	447.8	441.6	435.9	451.2	431.4	427.9	416.4	398.1	347.4	317.5	282.5	250.3	264.9	233.0	176.3	141.4	112.6	95.94	81.58	67.91	54.22	46.34	38.31
470.0	118.8	180.4	240.2	209.7	353.3	368.0	483.0	462.4	615.7	593.8	620.7	600.1	665.1	664.5	670.2	699.1	635.4	589.8	548.1	498.1	422.7	442.9	420.0	414.1	410.6	408.4	415.5	410.9	400.9	424.4	410.9	420.4	422.4	411.1	373.9	365.6	333.0	310.2	268.5	239.1	229.3	235.8	198.5	143.6	129.0	99.11	92.38	77.65	62.08	49.38	38.83
475.0	95.36	200.6	230.5	247.2	300.3	389.0	430.3	469.7	512.3	526.3	593.0	518.0	605.1	628.3	625.2	602.2	591.5	522.7	506.4	440.8	411.3	381.2	389.9	383.3	391.0	372.4	370.8	375.3	389.7	376.7	380.4	377.9	381.0	386.9	365.3	344.6	327.0	290.1	259.4	233.3	211.1	202.8	209.4	171.6	128.8	103.0	92.74	80.98	62.80	48.75	45.59
480.0	118.1	184.5	207.2	302.6	354.7	346.3	416.9	416.7	459.8	495.5	548.8	527.8	558.7	611.2	580.3	601.8	575.4	498.5	447.3	395.7	380.7	355.9	360.2	339.8	338.0	337.4	346.8	347.1	357.5	341.2	356.4	343.9	357.0	350.8	341.4	318.5	304.8	275.5	245.6	225.1	198.7	183.1	186.0	174.9	140.0	113.9	91.52	82.34	70.47	65.31	48.85
485.0	113.4	139.8	170.7	215.8	263.7	314.1	361.0	397.4	447.7	446.4	462.3	507.6	546.4	546.9	545.2	554.0	539.5	475.8	429.3	385.9	355.0	357.3	348.3	332.4	320.6	317.3	310.2	322.1	323.3	326.4	321.4	321.0	333.7	323.4	311.1	315.3	283.0	254.7	235.5	218.2	191.1	188.5	172.5	168.5	163.8	122.1	100.6	87.58	76.96	65.79	57.01
490.0	82.68	142.1	205.8	213.3	311.1	279.4	387.8	397.3	430.9	380.1	477.1	497.2	506.5	547.4	565.8	510.8	494.1	438.9	415.9	375.3	343.1	336.5	290.3	313.5	288.2	297.8	299.1	295.8	295.6	299.5	307.8	303.1	287.0	308.7	304.0	289.0	269.1	249.7	231.8	210.3	196.5	181.6	161.1	149.5	168.4	139.0	105.4	86.41	79.93	68.52	59.23
495.0	87.01	129.0	163.8	179.3	253.6	260.9	302.6	318.9	384.7	406.8	475.8	465.3	470.5	509.2	526.7	500.4	451.2	436.7	402.9	371.6	325.2	322.8	279.2	286.6	288.2	280.5	277.3	303.3	280.1	276.6	267.9	291.6	291.3	277.7	281.1	270.9	254.6	237.7	213.8	198.0	184.9	170.0	161.4	138.0	147.8	153.4	119.7	93.26	78.01	68.79	64.04
500.0	132.3	154.9	179.7	201.0	197.1	229.0	313.8	333.3	389.5	384.1	423.8	458.4	436.7	447.5	472.5	472.9	443.2	399.6	351.6	327.3	300.3	291.6	253.3	258.3	259.5	249.2	257.3	246.0	253.3	251.8	262.3	258.6	254.1	266.2	260.2	253.2	238.5	225.8	207.8	187.8	175.7	156.5	150.5	133.0	124.7	134.6	135.5	102.2	82.70	73.45	64.71
505.0	110.3	130.8	170.8	178.7	176.0	262.4	276.7	325.0	307.9	340.8	358.0	408.2	404.2	425.1	468.0	452.6	415.1	381.4	333.9	313.3	290.4	267.0	252.8	242.4	247.3	223.5	229.1	224.7	234.6	232.3	229.1	243.3	238.2	241.1	238.6	242.2	213.7	209.8	187.3	179.6	170.6	152.7	143.0	133.3	125.2	110.2	119.0	113.4	86.58	70.81	63.57
510.0	68.05	55.65	134.9	145.3	221.0	168.6	244.0	266.4	294.3	347.2	350.2	383.7	359.6	414.3	424.3	405.8	396.9	345.7	320.6	287.3	264.5	245.1	232.6	220.9	217.6	208.3	213.1	198.9	216.1	202.7	215.4	209.2	209.7	229.7	225.4	204.7	196.6	193.5	167.9	168.0	143.9	148.1	130.9	127.5	116.1	105.5	101.9	108.9	100.6	73.96	64.60
515.0	84.75	105.4	132.9	196.7	191.1	165.5	221.7	262.9	295.9	302.5	328.6	345.5	330.4	375.9	375.8	368.6	352.1	350.4	294.6	259.7	248.0	226.0	210.4	193.7	193.2	189.7	186.2	179.8	197.4	191.0	191.4	196.6	190.0	194.2	204.7	187.2	177.5	172.7	163.5	153.5	142.9	133.3	121.9	119.0	98.65	98.47	89.64	95.21	95.52	85.80	65.58
520.0	71.23	65.32	182.9	144.8	156.5	160.7	246.2	260.3	273.4	250.1	285.3	257.5	340.5	317.2	349.7	350.3	340.1	305.7	280.9	241.1	223.8	205.3	196.9	182.0	173.8	166.8	169.6	158.7	172.4	163.8	172.4	171.4	181.3	168.2	176.0	171.5	168.7	157.7	150.0	143.6	129.9	125.6	112.8	104.0	97.79	86.93	81.26	81.79	88.39	85.25	72.63
525.0	73.06	71.64	135.7	117.3	166.6	203.3	216.3	237.9	197.8	204.5	292.5	287.1	267.9	318.8	321.2	330.9	315.6	273.2	251.8	222.1	197.2	195.5	187.8	168.2	179.4	153.3	151.8	154.3	147.6	145.2	156.1	149.1	150.6	162.8	164.6	161.8	144.7	139.6	130.7	127.1	119.1	119.7	97.31	99.07	87.45	87.66	78.95	72.48	80.87	82.69	73.23
530.0	41.44	109.5	83.28	100.4	131.7	112.1	176.1	204.7	238.1	215.7	233.6	249.0	269.1	302.4	310.4	294.4	264.4	240.6	235.6	210.6	189.2	161.3	166.3	162.4	148.9	144.7	141.2	137.1	135.1	135.6	132.8	137.1	145.1	139.9	144.2	143.3	137.2	127.3	120.8	115.0	105.9	104.4	99.36	89.06	83.68	78.59	78.32	68.18	66.77	68.16	72.06
535.0	55.16	81.22	58.11	133.7	132.8	155.1	173.8	175.2	161.9	204.5	186.0	222.0	205.3	233.9	271.3	289.7	258.4	225.4	223.8	178.2	162.1	160.1	150.8	130.5	137.6	129.4	129.4	119.2	114.3	127.3	124.9	124.9	130.9	120.3	130.4	121.7	112.4	112.8	107.1	99.83	94.94	89.76	84.23	77.68	77.19	70.27	68.65	63.90	60.11	61.85	62.86
540.0	46.56	52.60	85.04	77.95	137.8	115.7	163.4	155.4	161.4	169.4	164.6	196.0	210.0	235.2	247.9	233.2	230.1	206.6	196.8	155.0	145.4	141.8	128.4	131.6	131.7	115.7	114.0	114.5	104.1	101.9	115.5	118.0	109.6	114.3	118.7	112.0	108.4	97.59	98.73	92.54	84.31	84.54	80.06	75.91	71.69	64.30	65.79	60.13	57.90	53.53	53.92
545.0	50.32	60.08	102.4	70.79	88.90	112.9	111.4	143.1	147.3	152.4	171.7	159.6	181.6	206.9	236.6	245.6	207.1	200.1	172.6	160.1	130.9	127.0	115.5	121.1	107.2	103.3	112.9	104.1	100.4	90.55	97.20	102.6	99.08	103.9	106.7	102.1	91.94	89.83	88.99	81.98	78.32	73.91	72.34	70.52	66.12	61.79	55.14	62.00	52.66	48.40	47.53
550.0	68.12	52.84	63.38	81.50	89.20	93.37	128.1	125.7	118.5	145.2	143.4	176.7	192.4	187.9	198.0	259.8	195.0	180.8	149.1	139.6	127.2	121.9	105.9	106.9	96.53	95.92	99.74	90.17	96.66	88.30	87.78	94.77	97.50	96.46	103.7	87.13	89.00	85.92	77.20	78.89	70.45	67.07	67.66	60.86	61.52	57.75	54.78	51.94	50.35	48.21	44.31
