Sample:	'SLABO1-5-5-320
File name:	3N7.FD3
Run Date:	15:30:08, 08/24/2022
Operator:	Administrator
Comment:	'

Instrument
Model:	F-7000 FL Spectrophotometer
Serial Number:	2354-007
ROM Version:	5J14000 06

Instrument Parameters
Measurement type:	3-D Scan
Data mode:	Fluorescence
EX  Start WL:	200.0 nm
EX  End WL:	450.0 nm
EX Sampling Interval:	5.0 nm
EM  Start WL:	280.0 nm
EM  End WL:	550.0 nm
EM Sampling Interval:	5.0 nm
Scan speed:	12000 nm/min
EX Slit:	5.0 nm
EM Slit:	5.0 nm
PMT Voltage:	700 V
Response:	Auto 
Corrected spectra:	Off
Shutter control:	On
Contour interval:	25.000

Peak integration
Integration method:	Rectangular
Sensitivity:	1
Threshold:	1.000

Peaks
No.	ApexEX/EM(nm)	Height(Data)
1	205.0/305.0	435.7
2	205.0/470.0	141.8
3	205.0/500.0	96.14
4	205.0/515.0	96.33
5	210.0/385.0	263.2
6	210.0/415.0	253.6
7	210.0/460.0	174.7
8	210.0/540.0	59.07
9	215.0/485.0	142.3
10	220.0/300.0	568.7
11	220.0/535.0	79.71
12	225.0/320.0	554.2
13	225.0/330.0	614.6
14	225.0/445.0	372.3
15	230.0/325.0	569.1
16	230.0/335.0	546.8
17	230.0/360.0	462.3
18	230.0/370.0	451.2
19	230.0/490.0	251.3
20	230.0/540.0	112.8
21	235.0/345.0	540.2
22	235.0/375.0	442.0
23	235.0/390.0	457.2
24	235.0/405.0	504.9
25	235.0/430.0	523.2
26	240.0/380.0	465.5
27	240.0/400.0	514.6
28	240.0/450.0	466.0
29	245.0/330.0	368.5
30	245.0/370.0	481.5
31	245.0/395.0	506.9
32	245.0/440.0	520.1
33	245.0/540.0	124.0
34	250.0/300.0	240.1
35	250.0/415.0	559.6
36	250.0/425.0	545.4
37	250.0/445.0	505.5
38	255.0/360.0	431.0
39	255.0/400.0	537.0
40	255.0/440.0	533.9
41	260.0/395.0	519.8
42	260.0/420.0	561.3
43	260.0/460.0	497.6
44	260.0/495.0	327.0
45	265.0/290.0	374.2
46	265.0/380.0	479.1
47	265.0/435.0	531.6
48	265.0/445.0	560.5
49	270.0/375.0	491.8
50	270.0/425.0	551.9
51	275.0/305.0	735.2
52	275.0/335.0	445.0
53	275.0/380.0	482.1
54	275.0/400.0	540.9
55	275.0/415.0	552.0
56	275.0/440.0	549.2
57	275.0/460.0	498.4
58	280.0/310.0	834.7
59	280.0/340.0	443.0
60	280.0/365.0	474.2
61	280.0/390.0	513.8
62	280.0/405.0	536.2
63	285.0/315.0	837.3
64	285.0/350.0	446.0
65	285.0/370.0	470.3
66	290.0/320.0	730.0
67	295.0/325.0	578.8
68	300.0/335.0	566.0
69	300.0/540.0	105.7
70	305.0/340.0	552.2
71	310.0/345.0	495.0
72	310.0/410.0	441.4
73	310.0/430.0	422.0
74	315.0/350.0	476.9
75	320.0/360.0	469.0
76	320.0/415.0	452.0
77	325.0/365.0	491.2
78	325.0/420.0	447.2
79	330.0/370.0	483.7
80	330.0/440.0	408.4
81	330.0/500.0	164.3
82	335.0/375.0	454.9
83	340.0/385.0	438.8
84	340.0/415.0	420.3
85	340.0/430.0	420.9
86	345.0/390.0	442.3
87	350.0/395.0	445.1
88	355.0/405.0	431.6
89	360.0/410.0	429.5
90	365.0/415.0	414.4
91	370.0/300.0	3.651
92	370.0/420.0	397.4
93	375.0/430.0	355.8
94	380.0/435.0	318.7
95	390.0/305.0	3.142
96	390.0/450.0	235.5
97	395.0/455.0	221.6
98	400.0/300.0	3.308
99	405.0/310.0	3.288
100	405.0/470.0	170.2
101	410.0/475.0	155.6
102	415.0/350.0	3.495
103	415.0/480.0	127.4
104	420.0/310.0	2.996
105	420.0/340.0	3.581
106	425.0/495.0	102.1
107	440.0/515.0	72.67
108	445.0/310.0	3.795
109	445.0/520.0	58.80

Data Points
	200.0	205.0	210.0	215.0	220.0	225.0	230.0	235.0	240.0	245.0	250.0	255.0	260.0	265.0	270.0	275.0	280.0	285.0	290.0	295.0	300.0	305.0	310.0	315.0	320.0	325.0	330.0	335.0	340.0	345.0	350.0	355.0	360.0	365.0	370.0	375.0	380.0	385.0	390.0	395.0	400.0	405.0	410.0	415.0	420.0	425.0	430.0	435.0	440.0	445.0	450.0
280.0	32.56	38.38	38.26	29.00	59.01	69.65	36.72	25.20	17.74	25.68	56.43	94.33	49.30	18.95	19.49	567.4	 3115	 1514	52.88	6.232	7.085	5.057	2.926	3.173	1.931	2.768	2.152	2.998	1.139	1.857	1.553	3.181	1.359	1.374	1.510	2.156	1.185	0.834	1.409	0.863	1.281	1.034	1.013	0.903	0.714	0.794	1.110	0.565	0.784	0.583	0.817
285.0	182.9	95.87	75.55	116.3	144.8	151.1	103.2	42.13	49.28	62.74	137.8	140.2	202.4	116.3	51.31	72.23	 1182	 9040	 5168	353.0	9.497	8.281	7.638	4.992	4.102	2.541	3.044	3.494	2.127	2.256	1.899	2.361	2.213	1.349	1.089	1.749	1.706	1.467	1.202	1.438	0.971	1.000	0.718	1.436	0.738	0.841	0.994	1.268	1.387	0.928	0.723
290.0	296.3	170.8	236.2	261.6	332.2	343.2	189.0	113.7	60.64	117.6	137.4	162.4	214.9	374.2	172.9	95.45	125.9	 3023	9999.9	 8418	485.1	11.81	7.621	6.162	6.440	4.992	2.880	2.646	2.308	3.066	1.979	2.123	3.250	2.276	2.272	2.106	1.690	1.866	1.054	1.822	1.766	0.950	1.339	0.975	0.969	1.346	1.476	1.181	1.725	1.972	1.841
295.0	439.9	299.2	214.2	305.4	394.5	470.3	270.5	146.6	114.2	134.1	149.9	196.9	183.6	350.3	491.0	205.2	124.0	277.1	 4392	9999.9	9999.9	610.5	13.76	11.01	8.265	8.505	4.662	5.687	3.018	2.366	3.044	4.435	3.090	2.139	2.838	2.302	2.269	2.569	2.303	2.964	1.455	2.127	2.055	1.909	1.583	1.276	1.642	1.699	2.080	3.101	1.724
300.0	480.2	308.1	280.8	390.8	568.7	528.7	408.2	265.1	131.5	158.9	240.1	197.6	228.0	254.6	513.0	524.5	212.2	154.5	357.8	 5544	9999.9	9999.9	632.9	13.05	14.21	8.150	7.265	5.907	3.578	4.033	3.514	3.958	2.354	3.447	3.651	2.150	2.493	2.908	2.784	1.762	3.308	2.575	1.404	1.538	1.484	1.458	2.056	2.119	2.442	3.168	2.744
305.0	416.9	435.7	321.6	375.3	471.7	489.4	411.6	285.1	222.8	189.8	203.4	223.7	244.0	258.1	321.1	735.2	547.6	210.0	146.8	413.7	 6204	9999.9	9999.9	696.1	20.67	11.99	9.897	9.900	4.594	4.525	4.418	4.160	3.131	3.705	2.185	2.207	2.078	2.350	3.142	2.615	2.159	1.848	1.938	1.877	2.336	1.324	2.496	1.976	1.946	3.033	2.243
310.0	381.7	332.7	292.4	284.3	413.4	471.6	405.3	358.2	247.0	224.5	220.2	244.1	260.9	284.4	308.6	409.3	834.7	457.5	174.5	113.0	444.7	 5572	9999.9	9999.9	714.4	19.15	13.87	13.78	9.558	5.043	5.714	4.234	3.580	3.503	2.338	2.178	2.127	1.967	1.556	1.771	2.478	3.288	1.486	1.699	2.996	1.738	2.062	3.034	3.028	3.795	2.020
315.0	330.8	327.2	245.9	299.8	414.0	469.1	463.2	316.3	294.4	265.1	253.2	257.7	281.5	307.5	330.0	352.6	477.3	837.3	328.2	126.2	95.81	397.8	 6716	9999.9	9999.9	702.8	20.76	18.46	9.458	8.235	8.723	6.701	3.764	4.333	3.380	2.231	2.722	2.229	2.545	2.095	1.823	2.559	2.293	1.632	1.806	1.453	1.832	1.683	2.278	2.257	1.932
320.0	314.4	308.1	232.6	264.3	415.1	554.2	466.6	361.6	294.1	271.7	287.2	310.7	305.3	307.1	339.1	365.5	376.5	550.7	730.0	227.6	94.92	90.11	481.5	 6441	9999.9	9999.9	611.0	25.27	12.44	12.37	10.49	8.204	5.221	4.099	2.632	2.934	2.184	2.961	2.101	2.691	2.618	2.319	2.441	2.157	2.653	1.982	2.065	1.655	2.558	2.781	2.380
325.0	241.5	236.7	275.6	328.4	354.6	486.9	569.1	389.2	390.1	335.9	343.4	306.3	327.8	350.4	367.4	381.9	374.0	371.1	559.5	578.8	170.2	90.34	97.86	461.9	 6589	9999.9	9999.9	650.8	20.37	16.53	14.43	12.63	7.098	4.567	3.093	3.262	2.809	3.412	3.473	2.892	1.616	2.267	1.239	1.725	1.776	2.076	1.939	1.579	1.821	2.967	2.226
330.0	193.9	272.5	219.3	292.3	433.4	614.6	483.8	430.6	353.7	368.5	357.6	348.5	342.6	317.6	381.9	423.6	413.5	367.6	357.0	569.3	436.5	122.9	86.78	93.65	465.1	 6799	9999.9	9999.9	599.9	24.16	19.33	18.24	9.696	8.028	5.083	3.557	2.787	2.505	3.138	2.521	2.170	2.930	1.945	2.145	1.735	1.690	1.917	1.507	2.050	2.900	2.639
335.0	278.1	243.2	305.5	225.0	336.5	449.8	546.8	455.4	376.5	353.8	356.9	326.6	314.5	330.4	371.2	445.0	422.2	403.0	338.8	311.9	566.0	354.4	111.4	80.97	85.65	474.0	 6412	9999.9	9999.9	593.1	31.21	26.76	13.88	9.958	5.710	5.516	3.546	3.755	2.664	2.663	2.750	2.647	2.253	1.724	2.370	1.794	2.574	2.699	2.275	1.902	2.549
340.0	239.8	208.8	269.2	205.3	378.3	403.4	532.6	464.8	427.1	350.6	348.9	314.6	298.4	354.7	367.7	430.2	443.0	404.8	393.1	271.5	297.6	552.2	266.4	108.2	80.02	94.66	451.5	 6434	9999.9	9999.9	700.3	39.26	15.71	12.64	9.273	6.034	5.914	3.790	3.749	2.493	2.485	1.885	2.172	2.672	3.581	1.925	2.237	1.813	2.304	2.323	2.656
345.0	142.4	223.7	210.9	207.2	339.7	425.9	530.5	540.2	418.1	379.9	367.4	335.4	339.1	341.8	373.9	422.5	441.7	428.3	380.0	278.0	232.9	312.6	495.0	213.8	96.42	80.39	92.46	454.5	 5578	9999.9	9999.9	958.9	25.00	16.16	12.60	10.85	5.987	3.468	4.349	3.129	3.749	2.166	2.209	2.326	2.548	2.924	0.910	2.197	2.163	2.115	2.598
350.0	185.8	177.2	134.6	170.1	307.9	445.5	421.0	463.5	421.8	383.4	353.6	345.5	352.8	392.4	396.5	437.6	437.0	446.0	383.9	306.4	241.2	222.3	376.7	476.9	176.5	100.8	84.12	94.90	400.1	 5316	9999.9	9999.9	625.0	26.27	21.22	14.48	7.632	7.365	5.671	2.960	2.447	3.167	2.697	3.495	2.081	1.578	1.633	1.702	1.836	2.493	2.490
355.0	155.8	151.9	208.6	211.2	339.0	397.2	428.6	458.8	446.4	438.6	379.3	371.2	356.9	377.3	398.7	455.9	449.1	421.8	428.0	346.3	276.5	243.8	235.3	410.0	425.4	164.0	111.4	95.36	96.70	390.4	 6154	9999.9	9999.9	654.7	26.49	17.75	11.38	7.937	5.384	5.492	4.278	3.420	2.403	3.208	1.715	2.379	1.854	2.432	2.167	2.139	2.960
360.0	134.1	181.7	232.6	265.1	294.2	409.8	462.3	416.4	445.9	424.6	403.5	431.0	402.1	409.6	436.6	463.4	457.2	423.1	422.1	329.4	290.6	266.4	237.5	250.4	469.0	351.0	154.6	124.5	96.84	92.84	447.1	 6490	9999.9	9999.9	604.1	27.61	16.00	14.63	8.424	5.845	4.248	3.449	2.242	2.813	2.860	2.396	1.698	1.872	1.497	2.853	2.578
365.0	140.2	168.9	179.4	128.7	315.0	353.4	431.8	399.9	391.5	438.6	409.4	411.0	375.8	420.0	444.4	464.9	474.2	458.0	424.4	385.7	317.6	287.4	272.8	272.2	319.3	491.2	307.8	161.1	131.5	93.64	93.25	459.4	 5486	9999.9	9999.9	624.6	22.85	20.74	12.61	7.212	6.183	5.390	2.902	2.239	3.261	2.564	2.840	1.672	2.711	2.833	2.413
370.0	113.4	228.3	131.7	217.9	276.1	415.7	451.2	423.8	418.9	481.5	459.1	401.0	468.9	434.8	444.8	476.3	442.1	470.3	417.3	370.2	321.6	312.9	314.6	287.1	296.5	345.0	483.7	281.1	146.1	115.1	99.26	91.25	404.9	 4814	9999.9	9999.9	579.3	24.75	16.80	12.65	7.461	5.433	3.054	3.163	3.773	2.532	2.302	2.110	2.214	2.213	2.680
375.0	195.2	140.5	177.2	199.8	383.5	401.6	441.0	442.0	384.1	480.6	436.9	442.1	471.2	474.3	491.8	470.7	466.5	439.4	412.7	394.6	352.5	361.7	342.3	330.7	299.9	298.1	408.8	454.9	224.6	141.3	115.2	97.17	89.44	354.9	 4931	9999.9	9999.9	613.4	24.20	15.62	8.530	7.013	5.061	3.452	5.051	3.157	2.840	2.359	2.179	1.759	2.555
380.0	165.4	137.1	178.8	221.5	252.8	357.0	431.6	429.2	465.5	447.6	447.8	454.1	442.2	479.1	458.5	482.1	468.1	462.9	419.1	393.8	380.6	374.5	372.7	338.5	328.5	311.5	309.0	431.5	394.1	204.4	155.2	116.6	90.89	87.09	362.2	 4566	9999.9	9999.9	549.4	21.57	14.99	8.458	7.331	4.218	4.254	2.988	2.737	2.811	3.254	2.666	2.762
385.0	133.8	111.1	263.2	175.0	281.3	329.2	382.8	445.2	452.5	501.1	437.9	472.3	478.6	455.6	469.8	471.5	484.2	479.0	464.1	438.0	397.5	359.6	379.2	378.8	366.1	346.2	314.3	318.2	438.8	340.9	180.7	145.3	115.9	88.43	87.15	335.5	 3736	9999.9	9999.9	565.1	18.78	12.06	8.694	5.834	4.704	3.577	3.486	2.323	3.136	2.475	2.018
390.0	104.6	176.3	189.8	246.1	262.5	380.2	400.7	457.2	415.6	493.8	477.9	502.3	497.2	475.3	504.9	488.2	513.8	481.6	448.8	408.0	414.2	390.2	397.5	388.6	390.5	363.2	339.2	332.0	342.5	442.3	301.2	176.5	141.4	112.2	88.53	83.33	284.2	 4071	9999.9	9999.9	464.6	18.89	12.60	6.633	8.795	4.517	3.767	2.836	3.247	2.660	2.347
395.0	143.6	227.7	181.0	219.6	275.6	324.3	411.2	445.2	495.2	506.9	475.1	493.8	519.8	507.4	506.9	500.8	492.4	475.0	442.5	438.7	426.1	428.5	398.8	407.4	396.5	387.8	362.1	360.8	339.5	370.9	445.1	270.7	182.6	140.9	114.8	88.18	79.30	304.7	 3931	9999.9	9999.9	463.3	14.72	11.81	11.19	5.904	5.022	4.202	3.262	2.619	2.595
400.0	124.7	168.5	156.1	149.1	253.9	342.9	405.4	455.1	514.6	480.9	520.2	537.0	478.2	495.8	482.6	540.9	507.1	495.4	478.1	459.6	460.0	401.8	430.9	430.8	412.5	406.8	393.4	379.6	351.9	327.4	406.3	406.6	244.3	177.7	145.5	108.7	82.63	77.56	292.4	 3868	9999.9	9999.9	400.4	14.90	15.24	8.737	5.315	4.820	3.781	3.444	3.480
405.0	139.4	235.2	198.9	255.1	246.3	384.2	412.3	504.9	491.1	459.5	500.4	478.5	516.0	519.9	502.0	523.0	536.2	523.2	466.0	457.3	437.1	426.4	431.6	435.2	420.4	415.5	405.9	403.8	375.0	354.3	343.5	431.6	382.3	217.2	180.4	136.9	103.5	78.05	72.17	283.9	 3056	9999.9	9999.9	330.1	22.56	9.032	8.310	6.165	4.617	4.159	4.188
410.0	122.6	124.7	195.8	264.4	255.3	415.1	461.5	484.3	511.1	497.9	529.0	531.8	497.6	522.2	504.7	549.3	533.2	485.3	485.9	458.7	433.6	421.6	441.4	435.5	439.0	432.4	433.9	418.8	413.5	367.2	351.1	354.0	429.5	332.9	210.1	166.8	119.0	92.66	73.76	66.78	226.7	 3109	9999.9	 9066	587.1	15.95	11.44	6.265	6.589	4.038	4.047
415.0	117.1	144.3	253.6	215.4	256.5	352.2	419.5	463.6	525.5	543.9	559.6	556.2	546.2	526.1	546.4	552.0	533.1	505.9	464.4	454.4	432.3	407.6	429.7	422.5	452.0	439.4	423.8	415.3	420.3	399.8	366.2	348.0	377.5	414.4	274.8	190.0	143.1	109.3	82.83	60.85	59.25	226.8	 2918	9999.9	9999.9	305.7	17.00	9.694	6.652	5.773	4.874
420.0	119.5	171.7	176.9	267.6	239.0	401.5	431.6	418.5	455.6	495.4	512.6	515.2	561.3	553.3	504.6	547.6	518.5	506.9	484.6	434.7	434.1	420.2	416.9	423.7	440.0	447.2	428.5	417.8	418.4	409.2	366.1	359.1	332.5	376.0	397.4	243.5	171.5	115.1	100.3	69.79	59.00	53.77	215.0	 2624	9999.9	 8560	286.3	13.79	10.82	6.756	5.786
425.0	74.60	156.4	114.5	179.7	334.6	293.5	462.7	461.3	471.5	540.2	545.4	506.6	539.8	543.1	551.9	542.0	511.0	506.1	448.0	433.7	407.1	390.0	419.9	416.4	436.7	432.5	425.6	417.9	409.9	401.0	380.6	373.5	330.7	320.4	379.1	320.3	195.7	139.6	110.5	86.54	63.44	51.47	44.37	193.6	 2784	9999.9	 9217	238.2	12.14	9.739	6.679
430.0	137.3	133.8	150.8	231.0	292.2	322.5	402.2	523.2	501.8	519.1	531.3	536.8	544.0	506.9	535.2	510.7	510.1	490.1	459.9	426.4	396.5	383.5	422.0	397.9	412.4	411.3	420.1	419.5	420.9	406.9	373.8	364.2	344.7	331.0	310.8	355.8	269.6	168.3	113.9	97.87	73.22	61.29	42.40	44.19	203.7	 3197	9999.9	 7526	230.5	13.88	8.628
435.0	102.1	134.3	115.6	235.5	211.3	317.0	455.9	457.9	469.5	488.1	538.7	502.5	507.0	531.6	529.2	525.6	509.6	474.5	442.0	408.2	390.3	381.3	402.3	394.7	382.3	406.2	396.6	402.0	403.1	383.7	387.2	375.9	357.8	333.6	296.9	297.8	318.7	219.9	138.0	108.9	85.97	69.41	49.73	42.08	50.22	228.1	 2699	9999.9	 8071	237.6	11.83
440.0	96.58	133.3	117.3	196.4	267.5	334.1	390.1	415.5	474.9	520.1	461.5	533.9	528.5	509.2	534.8	549.2	535.9	480.4	427.2	392.5	367.2	374.3	353.9	365.4	378.7	389.1	408.4	396.1	391.3	388.0	371.7	362.6	339.9	333.8	302.1	266.6	279.1	274.1	172.1	122.8	96.25	78.63	62.66	50.86	42.98	48.83	194.7	 2374	9999.9	 8087	186.7
445.0	98.78	81.78	123.3	181.4	308.6	372.3	332.1	424.7	431.1	485.5	505.5	484.1	510.7	560.5	531.0	483.6	498.3	460.3	424.0	410.8	375.3	356.5	359.9	355.4	368.2	365.6	372.7	380.7	378.9	376.3	363.6	363.8	335.8	333.7	308.4	267.3	246.2	273.4	228.5	147.9	105.8	88.38	72.94	61.09	48.63	43.58	46.17	175.6	 2631	9999.9	 6277
450.0	155.6	119.3	163.7	177.1	203.5	272.3	380.3	417.8	466.0	435.4	474.3	467.3	511.6	529.0	510.5	485.9	470.7	448.3	385.8	353.3	370.8	336.7	344.0	349.8	342.6	343.2	346.8	355.9	354.1	360.5	347.5	339.6	335.5	321.2	301.0	269.7	230.8	224.3	235.5	187.1	125.4	98.18	84.17	75.60	56.06	48.49	37.19	42.12	190.5	 2791	9999.9
455.0	85.25	109.1	128.1	141.8	225.4	299.5	324.5	401.6	428.9	455.1	453.4	466.9	470.5	515.7	501.2	485.8	437.2	416.7	394.8	349.4	326.1	326.7	306.8	303.9	320.5	329.0	321.6	331.5	323.6	330.5	318.4	318.4	320.7	310.3	287.7	261.5	226.8	194.3	203.7	221.6	161.4	109.5	85.66	80.41	67.95	55.13	45.58	36.38	40.35	197.3	 2490
460.0	50.50	155.3	174.7	160.1	223.9	201.7	332.0	377.6	373.9	348.1	428.2	442.2	497.6	442.8	470.0	498.4	430.5	376.2	385.5	330.6	316.4	283.8	289.2	292.9	306.9	310.0	309.6	307.1	303.4	317.2	313.4	303.8	299.1	284.9	270.3	248.5	222.1	198.5	187.7	193.6	191.3	134.1	99.32	87.58	79.22	63.10	57.61	44.62	35.32	39.42	178.9
465.0	77.87	122.5	130.7	113.6	167.8	247.5	289.4	359.2	364.3	392.3	407.1	409.1	422.1	457.2	468.3	441.3	404.4	364.3	339.6	303.5	288.4	288.6	278.8	275.6	286.0	282.6	279.8	276.3	300.8	282.0	283.7	295.2	276.1	283.8	261.5	237.4	214.8	187.3	169.2	156.1	169.6	164.0	122.4	84.08	81.19	73.34	58.82	48.14	40.55	30.75	36.37
470.0	85.38	141.8	138.1	130.8	193.3	238.7	270.0	321.5	344.0	367.9	382.5	367.4	398.5	421.2	410.9	430.4	368.3	342.1	317.7	280.8	269.4	251.7	256.9	245.0	236.3	255.7	258.8	258.6	264.6	264.9	265.5	264.8	257.4	249.7	253.7	239.3	210.7	174.1	163.4	151.0	147.6	170.2	136.3	102.3	80.07	77.85	65.88	52.71	43.62	33.10	29.21
475.0	112.4	104.1	126.6	110.9	170.7	216.5	223.2	259.8	309.9	333.7	357.2	345.9	380.6	400.0	388.4	395.4	352.5	354.6	309.8	272.1	252.6	228.3	235.0	221.6	234.1	220.0	242.2	223.3	241.7	242.9	230.5	234.9	243.4	239.0	238.5	216.6	199.4	170.1	159.0	149.8	131.5	134.9	155.6	114.3	86.71	75.94	65.89	59.46	45.45	32.45	27.90
480.0	68.39	94.34	81.53	124.5	170.5	197.9	261.9	269.7	240.9	326.2	320.1	339.9	367.8	368.0	368.8	376.9	346.9	312.2	275.8	245.8	228.7	217.9	218.4	208.6	211.1	210.8	216.4	203.8	226.8	218.6	226.7	216.9	212.9	204.6	204.2	198.1	186.2	174.9	156.5	139.0	125.5	121.7	124.2	127.4	104.8	79.84	66.08	55.91	46.98	40.87	31.99
485.0	77.33	105.3	94.69	142.3	116.3	164.8	194.6	246.8	260.7	299.9	295.2	346.4	334.7	378.6	370.5	341.5	328.9	303.5	263.1	245.6	217.0	207.4	201.0	197.6	190.1	189.6	195.4	199.2	192.7	197.5	205.7	197.3	216.9	202.4	191.0	188.0	181.0	156.8	139.6	134.4	118.4	108.2	109.9	123.2	121.3	83.57	67.55	52.95	51.78	42.75	36.11
490.0	51.93	80.65	89.05	59.79	84.75	172.7	251.3	230.4	236.4	277.4	296.7	278.5	313.1	311.7	334.9	348.5	321.7	297.4	254.5	227.7	199.8	192.6	184.4	181.6	177.0	179.6	177.3	180.1	185.3	175.3	180.9	184.6	201.7	197.7	172.1	170.3	164.5	148.4	134.7	123.4	114.7	105.9	101.0	110.6	119.2	95.75	74.26	59.54	50.68	45.64	36.96
495.0	73.43	59.62	36.61	104.3	119.3	134.9	163.7	185.2	219.7	289.9	260.1	258.4	327.0	306.5	325.3	317.5	283.2	256.3	231.1	218.1	192.9	191.9	183.0	168.0	169.9	162.4	151.8	167.5	158.7	166.2	162.7	170.8	167.0	180.9	171.6	159.3	145.1	148.2	129.8	116.1	110.4	101.0	99.71	93.41	98.26	102.1	79.74	62.20	53.90	44.68	36.07
500.0	52.11	96.14	89.25	66.23	88.59	171.9	158.6	193.2	221.1	200.3	247.9	250.5	266.7	268.0	291.8	299.4	272.3	252.4	222.6	200.0	188.1	172.4	163.8	163.5	152.4	157.5	164.3	164.3	156.0	153.5	154.5	160.9	158.2	161.8	158.3	150.0	135.1	134.1	123.7	107.3	103.5	101.5	91.25	85.18	80.91	94.55	92.76	66.41	49.29	47.16	36.60
505.0	79.06	53.64	86.89	48.84	103.9	135.9	149.8	154.0	183.6	201.0	235.7	235.7	257.6	261.5	278.9	260.2	241.6	228.9	199.0	197.1	160.9	150.0	140.5	137.0	144.5	140.3	144.6	139.4	134.3	133.7	139.8	135.7	143.9	144.9	138.6	135.8	129.2	118.2	118.1	105.0	95.62	98.04	90.51	81.17	77.80	75.59	82.73	79.70	58.38	49.13	36.44
510.0	59.55	86.35	81.88	61.19	103.0	90.93	118.0	173.2	201.9	192.2	216.8	237.9	231.1	245.7	265.3	250.3	222.1	209.0	186.6	182.4	158.1	137.0	141.2	134.9	129.5	133.1	128.2	131.2	128.1	123.9	123.6	126.7	132.9	126.9	121.5	127.1	116.5	109.5	100.1	98.65	91.92	84.01	83.74	75.53	76.07	66.84	67.77	76.84	65.71	47.72	38.47
515.0	67.48	96.33	44.85	75.55	95.01	89.37	102.0	141.5	180.6	177.7	190.9	222.6	234.7	225.2	230.1	233.6	215.1	188.5	180.4	165.9	141.3	128.7	134.2	128.9	121.6	118.4	115.6	116.5	117.2	122.6	125.0	116.6	115.2	125.5	121.1	113.5	105.8	94.99	90.29	87.82	87.59	82.48	77.83	70.72	66.36	63.47	60.96	63.13	72.67	53.59	40.35
520.0	49.14	55.48	60.28	74.84	53.60	88.11	130.6	129.5	131.4	170.4	185.0	178.5	194.1	201.0	208.7	231.2	200.0	180.5	161.1	148.3	125.4	117.0	121.9	116.7	112.1	111.5	102.0	112.2	108.1	100.7	104.4	109.7	106.6	109.5	109.4	104.0	96.58	90.50	85.00	86.66	79.94	77.14	69.53	65.99	63.20	57.93	56.36	54.66	58.31	58.80	42.20
525.0	84.86	39.78	59.80	61.86	30.44	88.31	112.4	133.9	150.9	154.4	166.3	131.0	177.6	210.3	190.1	192.6	180.0	151.4	141.2	127.2	119.5	119.2	103.9	89.77	95.13	94.14	90.43	102.0	97.75	92.01	95.83	97.38	102.4	99.08	97.62	95.62	89.89	83.66	79.76	72.62	73.47	66.81	64.18	62.14	58.22	55.98	49.57	52.73	47.48	57.26	49.78
530.0	45.14	46.82	39.21	50.06	69.13	96.76	90.09	125.9	118.5	128.8	138.6	147.2	166.7	188.6	155.5	179.3	170.2	150.7	139.2	124.3	101.0	102.9	89.27	91.59	88.29	82.41	81.86	91.69	82.67	89.53	87.88	87.16	91.40	85.96	92.38	87.02	81.91	76.36	75.97	61.82	66.42	62.54	60.33	57.52	57.28	48.90	48.11	42.60	38.99	40.84	53.55
535.0	65.22	55.72	30.26	40.46	79.71	60.32	80.35	92.59	122.9	102.5	120.4	144.5	155.3	151.6	176.0	136.8	156.5	145.1	117.4	113.5	99.66	83.60	81.87	79.12	77.88	81.52	73.92	81.75	73.49	76.23	82.63	69.64	85.89	75.25	76.76	77.32	74.56	71.45	69.92	60.24	59.48	60.12	55.38	53.58	50.39	49.31	42.14	42.28	40.55	36.71	42.58
540.0	48.10	48.41	59.07	40.20	55.46	67.10	112.8	109.1	89.86	124.0	101.7	120.4	126.5	135.5	134.8	150.0	137.4	112.1	112.3	94.77	105.7	82.79	72.56	77.93	70.15	72.57	65.97	72.74	72.03	64.63	69.97	68.46	70.00	69.37	71.72	64.45	67.15	61.17	58.89	55.13	55.23	52.09	49.72	45.54	46.81	43.04	36.99	37.44	35.88	33.91	32.66
545.0	46.57	14.37	23.46	42.65	48.38	51.89	92.16	76.86	92.67	100.1	101.2	116.4	109.5	114.6	147.5	187.3	122.4	91.70	103.1	87.26	78.83	75.86	72.15	64.57	68.10	62.03	66.36	56.80	61.32	57.73	59.82	61.11	56.95	60.31	61.98	64.73	56.08	53.74	50.87	44.67	46.66	47.27	44.83	44.71	40.48	37.80	37.12	33.57	33.15	30.42	28.07
550.0	18.49	54.83	39.33	35.60	45.22	59.12	96.12	62.96	80.46	87.74	97.62	98.40	87.74	103.1	138.2	250.9	167.4	96.35	85.77	87.30	75.16	69.99	59.55	58.62	61.79	57.39	58.23	56.00	54.46	55.73	53.47	56.70	56.39	55.67	56.32	58.18	56.01	49.21	47.21	48.45	45.52	39.99	40.41	37.91	38.24	33.86	32.84	31.47	31.04	27.15	26.86
