Sample:	'SLABO1-5-5-320
File name:	3N8.FD3
Run Date:	15:34:23, 08/24/2022
Operator:	Administrator
Comment:	'

Instrument
Model:	F-7000 FL Spectrophotometer
Serial Number:	2354-007
ROM Version:	5J14000 06

Instrument Parameters
Measurement type:	3-D Scan
Data mode:	Fluorescence
EX  Start WL:	200.0 nm
EX  End WL:	450.0 nm
EX Sampling Interval:	5.0 nm
EM  Start WL:	280.0 nm
EM  End WL:	550.0 nm
EM Sampling Interval:	5.0 nm
Scan speed:	12000 nm/min
EX Slit:	5.0 nm
EM Slit:	5.0 nm
PMT Voltage:	700 V
Response:	Auto 
Corrected spectra:	Off
Shutter control:	On
Contour interval:	25.000

Peak integration
Integration method:	Rectangular
Sensitivity:	1
Threshold:	1.000

Peaks
No.	ApexEX/EM(nm)	Height(Data)
1	205.0/485.0	235.4
2	210.0/355.0	485.7
3	210.0/500.0	222.3
4	210.0/530.0	142.0
5	210.0/540.0	117.2
6	215.0/300.0	 1035
7	215.0/335.0	597.2
8	215.0/490.0	249.3
9	215.0/520.0	192.9
10	220.0/305.0	 1042
11	220.0/505.0	275.5
12	225.0/355.0	756.2
13	230.0/350.0	761.1
14	230.0/375.0	828.5
15	235.0/345.0	733.9
16	235.0/385.0	889.6
17	235.0/400.0	942.9
18	235.0/410.0	983.6
19	240.0/405.0	 1015
20	245.0/415.0	 1045
21	245.0/435.0	 1007
22	250.0/305.0	287.5
23	250.0/395.0	946.5
24	250.0/430.0	 1002
25	250.0/440.0	975.7
26	255.0/295.0	295.9
27	255.0/390.0	896.7
28	255.0/455.0	913.6
29	260.0/405.0	941.2
30	260.0/430.0	987.6
31	265.0/410.0	972.1
32	265.0/420.0	968.4
33	265.0/440.0	975.0
34	270.0/390.0	888.1
35	270.0/435.0	 1004
36	275.0/305.0	749.0
37	275.0/385.0	893.2
38	275.0/415.0	973.1
39	275.0/425.0	992.1
40	280.0/310.0	882.3
41	280.0/405.0	958.6
42	285.0/315.0	839.0
43	290.0/320.0	748.7
44	295.0/330.0	648.4
45	300.0/335.0	643.1
46	305.0/340.0	639.3
47	305.0/415.0	799.4
48	310.0/345.0	602.4
49	310.0/410.0	820.5
50	315.0/355.0	568.0
51	315.0/400.0	821.9
52	320.0/360.0	640.1
53	320.0/420.0	818.3
54	325.0/365.0	691.0
55	325.0/415.0	839.4
56	330.0/370.0	719.5
57	330.0/410.0	836.1
58	335.0/375.0	702.9
59	335.0/420.0	823.5
60	340.0/385.0	729.0
61	345.0/390.0	720.9
62	350.0/400.0	684.7
63	355.0/405.0	704.9
64	360.0/410.0	692.9
65	365.0/420.0	728.8
66	365.0/445.0	716.2
67	380.0/300.0	3.520
68	390.0/315.0	4.405
69	400.0/300.0	3.993
70	405.0/295.0	3.777
71	410.0/305.0	3.500
72	415.0/315.0	3.740
73	420.0/490.0	180.1
74	425.0/495.0	164.2
75	435.0/510.0	120.6
76	440.0/515.0	110.9
77	445.0/305.0	4.433
78	445.0/340.0	3.941

Data Points
	200.0	205.0	210.0	215.0	220.0	225.0	230.0	235.0	240.0	245.0	250.0	255.0	260.0	265.0	270.0	275.0	280.0	285.0	290.0	295.0	300.0	305.0	310.0	315.0	320.0	325.0	330.0	335.0	340.0	345.0	350.0	355.0	360.0	365.0	370.0	375.0	380.0	385.0	390.0	395.0	400.0	405.0	410.0	415.0	420.0	425.0	430.0	435.0	440.0	445.0	450.0
280.0	188.8	99.53	75.51	64.16	86.11	108.5	77.02	25.08	22.23	48.44	83.74	88.06	68.80	30.01	23.55	483.1	 3925	 1495	45.82	6.652	6.788	4.750	3.003	3.356	3.626	2.349	1.758	2.411	0.491	2.910	0.971	1.905	2.514	1.871	1.356	1.666	1.392	1.456	1.537	0.622	1.150	1.105	1.327	1.102	0.866	0.692	0.953	1.541	0.939	1.306	0.674
285.0	675.7	283.6	338.2	398.7	439.5	351.3	197.0	61.44	50.39	116.3	200.0	190.6	245.2	164.0	77.87	89.87	 1650	 7479	 4844	318.5	7.862	7.688	5.592	3.165	4.053	3.453	2.164	2.524	1.985	2.613	1.845	3.155	2.725	2.379	1.467	1.562	1.585	2.180	1.637	1.511	2.572	1.794	1.244	1.712	1.616	1.505	1.719	1.371	1.333	0.939	1.375
290.0	 1032	634.9	590.8	723.0	781.5	602.9	279.5	108.7	114.5	168.8	241.0	237.1	275.2	374.5	223.6	133.8	165.9	 2309	9999.9	 7212	428.8	11.61	8.768	6.079	6.268	5.273	3.424	2.390	2.092	2.087	1.919	2.465	1.468	2.354	2.054	2.238	1.701	1.919	2.840	1.738	3.387	2.068	2.216	1.844	2.267	2.221	2.220	2.423	2.824	2.683	2.875
295.0	 1340	715.4	814.8	867.1	999.5	845.4	484.8	217.6	131.7	186.2	282.7	295.9	237.6	411.3	523.9	257.1	139.0	242.8	 3546	9999.9	9999.9	489.1	10.14	7.599	7.014	7.328	4.749	3.351	3.079	1.879	3.354	2.302	1.460	2.031	2.668	2.112	2.223	3.012	3.670	3.150	2.632	3.777	2.382	1.857	3.026	3.731	3.187	3.959	3.374	3.714	3.195
300.0	 1258	897.6	878.5	 1035	976.9	940.1	608.4	281.9	192.6	220.1	287.3	279.8	278.6	314.6	574.6	598.4	244.0	175.7	309.6	 3955	9999.9	9999.9	466.5	14.59	10.24	9.335	6.790	5.482	3.478	3.704	3.199	3.074	2.285	1.237	1.833	1.237	3.520	1.592	3.567	3.318	3.993	2.721	2.986	2.548	2.364	2.977	3.889	3.039	4.005	3.808	2.616
305.0	 1287	855.3	797.2	784.2	 1042	877.4	579.1	318.5	220.3	264.6	287.5	286.0	270.7	286.1	392.6	749.0	599.5	240.6	151.7	326.4	 4954	9999.9	9999.9	513.3	15.91	11.25	8.685	11.67	4.303	3.674	2.941	2.591	2.332	2.774	1.649	2.191	1.557	2.500	4.060	2.485	2.753	3.237	3.500	2.379	3.222	3.116	3.175	4.429	4.299	4.433	2.818
310.0	 1079	790.2	685.7	818.4	803.9	811.2	552.2	374.2	255.3	223.8	242.7	261.7	294.4	293.9	360.2	500.5	882.3	470.0	190.8	124.3	376.2	 4061	9999.9	9999.9	536.4	17.10	11.15	13.88	5.946	5.003	3.944	3.273	3.362	3.209	2.803	2.214	1.854	2.561	3.411	2.600	2.894	2.857	2.632	2.286	2.773	2.557	2.361	3.137	2.451	3.863	3.456
315.0	812.9	712.6	651.3	577.9	758.6	827.4	506.5	334.4	249.1	259.6	243.2	270.5	297.3	342.4	370.4	396.2	531.6	839.0	369.0	134.5	112.8	323.7	 4790	9999.9	9999.9	473.8	15.51	18.23	8.579	6.802	4.820	4.671	3.879	3.703	4.436	3.000	1.836	2.735	4.405	2.500	2.170	2.683	2.841	3.740	1.963	2.934	2.995	2.839	2.991	3.521	3.004
320.0	676.5	622.1	540.0	621.8	620.7	717.7	562.2	412.7	289.9	235.9	272.4	272.3	311.0	343.0	385.7	439.5	437.6	586.3	748.7	255.6	142.4	112.0	375.1	 4835	9999.9	9999.9	501.6	26.73	11.40	10.06	6.044	7.437	4.687	4.491	3.324	2.979	2.450	3.136	2.891	2.319	1.884	2.442	2.457	2.342	2.418	1.916	2.937	2.332	2.533	3.346	2.708
325.0	626.2	506.9	408.2	539.0	586.2	709.7	552.4	464.4	325.9	283.0	267.2	271.5	336.6	379.2	396.8	460.4	470.1	433.6	644.3	610.6	226.7	126.9	124.9	374.5	 4987	9999.9	9999.9	628.6	14.27	10.75	9.178	8.774	4.988	3.253	3.718	2.445	2.466	2.837	2.154	2.977	2.381	2.271	2.699	1.678	1.961	1.808	2.177	2.016	3.075	2.673	3.097
330.0	410.9	433.0	375.0	377.7	522.5	638.4	628.3	514.6	383.5	312.7	305.0	284.0	325.2	371.8	429.5	475.3	495.8	454.4	392.6	648.4	531.5	206.4	132.7	128.4	377.2	 4982	9999.9	9999.9	423.1	17.87	12.51	13.20	6.381	9.225	5.089	3.327	2.648	4.114	3.026	2.200	3.000	2.707	1.904	2.157	2.101	2.089	2.411	2.726	2.618	3.147	2.880
335.0	481.8	372.5	377.8	597.2	511.7	669.9	668.2	604.6	493.6	333.8	321.0	327.1	357.2	389.8	450.5	501.6	508.5	507.0	396.1	381.7	643.1	423.4	187.9	127.2	120.9	379.7	 4820	9999.9	9999.9	446.0	17.16	16.95	10.94	9.372	5.603	4.314	3.586	3.961	2.421	2.114	2.014	2.352	3.146	2.007	2.864	2.685	2.259	3.050	3.215	3.210	3.151
340.0	290.3	370.2	381.0	420.5	565.9	712.1	724.3	601.3	479.5	403.0	339.2	399.6	350.6	433.8	474.0	503.7	556.8	510.7	473.8	384.2	412.7	639.3	363.1	170.4	139.3	113.0	377.6	 7647	9999.9	9999.9	461.5	26.25	12.82	11.66	9.643	5.593	5.255	3.513	3.174	1.893	1.917	2.988	2.698	1.981	2.476	2.144	2.306	3.050	2.778	3.941	3.225
345.0	233.4	308.0	346.2	461.2	500.0	652.1	699.4	733.9	562.3	472.5	426.7	370.1	438.2	424.4	498.4	537.2	541.9	577.0	516.8	436.0	377.9	435.1	602.4	305.4	166.2	135.2	135.2	567.9	 3944	9999.9	9999.9	541.3	20.18	14.95	8.314	6.389	5.704	4.389	4.598	3.817	2.039	2.953	2.885	2.894	2.627	1.719	2.214	1.979	3.371	3.687	2.764
350.0	243.3	337.5	255.9	408.4	486.5	650.6	761.1	705.4	608.3	498.5	486.8	441.7	480.4	504.9	504.4	565.7	595.9	605.6	529.1	478.6	420.1	385.8	519.8	560.7	288.4	177.4	149.3	148.8	333.6	 4591	9999.9	9999.9	530.3	23.80	15.98	8.950	8.727	6.926	4.361	3.983	2.982	3.193	2.594	2.804	2.647	2.654	2.126	2.388	2.522	2.610	3.116
355.0	234.4	281.6	485.7	469.7	470.6	756.2	710.1	727.7	675.7	620.3	556.2	569.1	532.7	572.3	576.6	619.9	643.4	630.3	602.7	523.3	487.8	459.6	435.9	568.0	558.3	292.5	221.6	168.6	142.8	378.4	 3857	9999.9	9999.9	526.1	19.57	12.25	8.782	8.336	5.263	4.318	3.121	2.786	3.088	3.213	3.343	2.193	2.585	2.252	2.574	3.673	3.038
360.0	249.2	271.9	350.5	401.5	596.2	629.5	715.1	685.1	744.4	619.3	631.6	584.1	603.7	639.3	636.3	679.9	654.2	651.3	637.5	551.4	535.3	506.3	474.1	459.8	640.1	504.4	298.9	247.3	190.8	157.9	340.8	 5308	9999.9	9999.9	463.7	19.56	11.92	12.51	6.958	6.440	3.262	3.644	3.419	2.387	3.060	2.763	2.138	2.551	2.651	3.317	3.394
365.0	177.9	281.9	418.4	428.4	584.9	708.1	780.8	745.3	742.0	690.0	669.8	655.5	672.3	662.3	686.0	741.0	701.3	695.9	675.9	632.5	590.9	576.5	522.0	504.4	542.9	691.0	500.6	328.8	247.7	193.1	150.8	428.7	 4065	9999.9	9999.9	483.3	20.08	17.03	9.435	6.431	4.604	5.140	4.216	3.440	2.743	2.656	2.024	3.137	3.105	2.877	3.270
370.0	225.9	343.0	435.8	406.5	585.6	723.9	777.9	824.7	828.9	809.4	771.1	709.5	725.1	745.2	763.3	733.3	768.8	733.5	737.1	676.4	645.4	620.2	592.3	588.7	556.6	606.5	719.5	477.1	332.4	252.5	188.1	160.5	347.0	 4403	9999.9	9999.9	452.4	28.07	13.45	10.06	5.297	5.579	5.494	2.906	2.599	2.988	2.048	3.321	3.201	3.679	3.015
375.0	217.2	366.8	384.8	461.8	489.5	688.2	828.5	791.3	835.2	781.6	777.4	688.3	760.3	760.1	765.3	792.3	802.2	766.0	755.3	700.2	680.0	658.7	642.8	623.1	628.2	592.8	665.0	702.9	441.6	321.6	244.8	183.2	137.0	358.5	 4297	9999.9	9999.9	817.9	19.40	12.59	8.203	7.683	5.785	4.047	2.841	2.537	2.706	3.108	2.820	3.819	3.300
380.0	218.4	284.9	378.0	475.5	580.5	667.2	798.8	852.9	837.5	829.7	799.0	768.4	784.5	806.2	793.9	888.1	816.3	780.4	757.5	737.7	716.4	706.1	675.8	674.4	661.0	635.7	636.1	697.6	641.8	428.1	314.6	230.0	174.8	135.5	353.2	 4000	9999.9	9999.9	433.2	17.64	10.90	6.964	7.708	4.966	2.540	4.518	3.503	3.681	3.510	3.788	3.457
385.0	281.7	327.5	470.8	406.0	611.2	645.9	734.4	889.6	873.9	865.1	880.3	823.3	843.6	818.9	828.0	893.2	885.8	801.8	791.7	744.3	741.3	706.9	724.2	724.7	706.3	714.7	667.3	635.0	729.0	597.2	397.8	303.0	218.3	167.0	140.5	333.0	 3175	9999.9	9999.9	412.4	14.61	8.991	10.17	6.185	5.794	3.561	3.360	3.747	4.144	3.046	3.416
390.0	225.1	374.7	423.6	483.8	621.7	726.8	812.7	857.6	863.9	898.9	882.4	896.7	871.0	821.5	888.1	860.4	854.5	864.1	815.2	753.2	749.8	738.5	785.3	758.2	740.4	746.4	709.5	671.0	668.4	720.9	532.1	364.0	279.3	221.0	171.4	133.2	278.8	 3661	9999.9	9999.9	357.4	17.21	16.16	8.128	5.794	4.611	4.886	4.834	4.072	3.740	3.028
395.0	284.1	419.4	484.5	500.4	592.3	791.4	851.6	910.6	917.0	897.9	946.5	838.9	855.1	829.6	870.4	907.9	878.9	869.2	847.2	792.2	789.1	769.1	799.6	810.8	800.7	771.4	741.1	709.8	674.0	663.7	669.5	480.3	364.2	291.3	229.0	157.3	122.7	310.3	 3666	9999.9	9999.9	379.9	25.10	11.63	7.959	7.362	5.113	4.849	4.994	4.564	3.814
400.0	275.1	356.5	523.3	632.0	625.1	741.1	824.1	942.9	908.4	939.8	915.6	895.4	881.3	877.3	880.3	917.1	894.0	875.5	852.4	825.1	791.5	776.3	811.7	821.9	811.4	793.5	777.2	767.2	696.0	654.2	684.7	646.3	451.3	350.0	292.2	212.7	149.3	126.3	308.6	 3139	9999.9	 9927	410.3	13.10	10.28	8.935	5.871	6.161	4.981	4.850	4.460
405.0	213.3	389.4	495.4	542.5	654.7	849.7	831.4	913.9	 1015	997.0	959.3	888.2	941.2	921.2	875.3	917.6	958.6	904.7	875.6	828.4	778.6	798.4	797.7	816.0	811.9	791.8	816.2	792.5	739.6	692.7	632.6	704.9	593.9	454.3	344.9	277.0	209.9	155.9	121.3	271.5	 2518	9999.9	9999.9	295.7	16.39	11.41	7.634	6.500	6.454	4.396	3.814
410.0	251.4	326.3	429.5	531.2	657.2	758.8	883.1	983.6	931.1	 1025	976.7	966.5	932.4	972.1	950.8	965.1	953.5	939.6	858.6	835.9	785.0	790.0	820.5	820.3	818.9	822.9	836.1	801.5	763.9	719.8	674.9	641.8	692.9	605.8	432.0	327.4	258.9	188.7	136.8	110.6	228.7	 2553	9999.9	 8627	325.0	15.72	8.934	7.866	5.802	6.358	5.527
415.0	244.9	375.5	465.7	540.4	606.7	787.7	818.9	925.5	992.5	 1045	 1014	963.8	932.1	947.6	923.1	973.1	945.4	932.7	868.1	812.1	788.4	799.4	790.6	787.0	809.9	839.4	826.3	814.4	789.2	758.7	687.6	629.3	646.9	721.6	538.6	369.8	293.4	230.3	160.6	113.5	102.5	225.0	 2953	9999.9	 8668	327.0	10.83	11.91	8.548	6.510	5.109
420.0	265.4	265.1	479.4	560.8	638.7	776.9	834.7	930.9	955.0	991.1	964.5	941.8	956.7	968.4	960.4	957.7	913.7	908.8	852.2	797.3	811.8	776.0	778.7	783.0	818.3	806.8	813.1	823.5	781.3	742.3	713.0	680.9	636.4	728.8	654.1	437.4	321.8	269.1	197.3	137.6	100.5	88.07	240.0	 2526	9999.9	 8433	232.9	18.45	11.53	7.854	5.767
425.0	264.3	317.4	529.2	589.3	626.9	685.6	805.1	874.1	886.5	970.8	997.2	987.9	981.7	953.4	973.1	992.1	945.0	871.1	848.0	770.3	760.6	733.0	758.1	766.5	781.6	791.3	804.8	801.3	779.9	774.2	703.1	699.4	645.3	683.3	656.8	553.2	378.5	297.5	220.1	169.3	129.2	97.38	75.88	203.8	 2268	9999.9	 6452	304.3	15.48	7.834	8.600
430.0	234.3	326.0	511.9	569.7	658.3	684.9	833.5	876.4	894.8	968.9	 1002	944.3	987.6	913.6	945.4	963.9	910.9	882.8	824.1	771.6	744.1	724.1	730.4	749.8	769.3	761.3	780.5	775.7	759.3	753.3	737.1	695.7	649.4	684.2	611.4	590.3	477.4	326.0	249.7	195.9	152.9	115.9	85.01	71.04	189.5	 2409	9999.9	 9004	255.4	10.56	8.090
435.0	212.5	378.3	404.4	543.0	641.4	774.5	793.1	816.3	900.3	 1007	955.1	930.6	976.5	923.6	 1004	993.8	942.0	919.3	809.3	771.8	720.6	682.3	712.7	721.7	736.1	727.4	745.9	744.6	746.0	731.4	710.7	704.5	672.2	701.2	597.2	529.8	523.4	396.5	282.9	224.1	183.4	138.3	99.39	76.01	64.87	190.3	 2090	9999.9	 8924	185.7	12.12
440.0	206.0	374.1	435.5	437.1	577.1	669.8	746.2	827.7	906.6	885.5	975.7	918.6	961.1	975.0	959.9	991.8	933.2	868.6	795.3	711.2	690.9	686.7	687.1	682.3	704.0	706.3	715.9	739.9	717.8	720.4	677.1	695.7	654.7	710.0	604.2	520.5	502.0	461.0	342.2	246.7	201.5	155.2	123.2	88.92	71.05	62.39	170.9	 2304	9999.9	 6240	164.2
445.0	215.2	309.2	378.8	467.0	523.6	679.3	818.8	845.9	878.0	879.9	940.3	916.6	891.2	951.7	954.5	953.5	917.8	857.0	764.0	718.9	667.5	617.9	638.5	630.1	664.2	671.8	674.3	697.7	713.9	692.0	683.7	668.5	654.1	716.2	611.5	534.8	483.5	455.2	389.6	275.7	213.3	173.4	142.5	97.30	78.58	70.15	58.87	184.6	 2675	9999.9	 5443
450.0	194.9	314.3	480.9	475.4	482.7	573.2	749.6	743.4	808.8	821.6	927.8	885.5	900.7	939.4	908.1	935.0	896.6	836.8	738.1	703.8	628.9	586.3	611.3	609.4	628.4	640.0	648.4	652.5	666.8	661.0	663.8	639.9	638.2	703.1	596.7	523.0	457.4	414.6	403.1	325.9	237.9	184.4	157.4	121.8	90.58	76.61	56.34	57.86	205.6	 2354	9999.9
455.0	200.7	321.6	356.8	394.1	519.5	570.9	591.9	675.7	737.6	766.8	807.7	913.6	885.4	907.3	834.8	872.4	846.0	807.1	697.4	629.4	597.5	581.4	570.6	572.3	590.4	611.5	633.4	616.0	617.7	626.9	612.3	610.0	599.1	645.3	567.8	513.6	448.8	392.7	373.3	339.8	277.9	208.5	165.4	134.8	110.4	86.97	71.02	58.34	54.19	180.9	 2114
460.0	208.1	253.6	332.9	408.6	423.4	498.4	584.7	673.6	732.5	749.4	780.6	857.9	821.5	797.8	845.2	864.0	786.2	761.9	649.5	587.7	547.2	532.2	531.5	530.7	537.6	551.6	558.5	554.9	580.2	579.9	569.7	572.2	575.8	614.9	555.3	487.6	441.8	391.4	341.3	330.4	307.4	232.5	178.9	146.0	123.7	103.4	77.32	65.71	53.93	51.29	161.8
465.0	246.2	326.4	377.3	418.1	404.0	525.0	564.1	626.2	637.5	701.7	784.1	731.6	745.6	788.0	795.2	800.3	743.4	709.8	612.8	566.8	522.8	501.0	487.3	494.2	500.5	501.0	520.9	525.3	527.8	513.8	528.9	539.4	535.4	580.1	514.7	474.8	425.4	373.8	346.7	298.6	286.0	261.1	196.0	154.1	129.7	109.5	92.41	71.41	65.68	45.86	47.56
470.0	191.8	327.8	286.7	389.2	379.6	491.6	516.2	575.9	666.6	675.0	719.6	709.9	717.9	745.8	755.7	775.0	758.7	677.6	601.3	548.4	495.3	466.6	458.3	454.4	459.8	464.8	479.5	480.2	492.0	474.9	499.7	494.6	506.3	545.0	487.3	440.7	404.2	363.4	312.7	292.3	263.2	267.3	221.4	170.3	143.3	114.5	95.54	79.73	67.95	53.10	44.69
475.0	179.2	191.7	276.2	326.3	334.7	401.7	497.4	524.0	573.0	561.8	701.0	604.9	643.7	667.3	680.4	657.8	675.1	594.8	545.2	474.8	426.8	437.7	401.0	427.3	419.9	419.2	427.0	424.7	450.0	450.1	454.0	442.7	459.0	509.7	450.8	411.5	382.6	353.1	314.7	278.6	247.9	232.8	236.7	184.5	148.5	121.9	98.90	87.73	72.87	59.34	48.13
480.0	209.3	196.5	286.3	264.3	321.0	415.2	442.8	502.8	522.4	602.4	539.6	624.2	633.2	650.3	624.2	643.6	599.3	585.6	481.5	467.6	407.1	409.6	408.0	390.0	377.2	388.9	392.4	417.8	406.6	408.5	405.5	422.6	418.6	464.3	419.3	393.0	360.4	329.0	305.4	270.9	228.1	213.9	213.2	205.1	158.3	122.0	101.5	91.49	76.73	64.45	52.46
485.0	158.0	235.4	231.1	209.8	318.4	335.5	455.2	426.7	460.0	524.8	521.4	580.6	577.5	580.3	635.2	622.1	546.5	503.3	466.7	422.7	395.0	366.7	350.4	348.6	371.1	351.2	354.2	361.8	371.2	371.8	383.5	386.3	392.8	432.1	396.8	374.3	338.6	306.9	277.2	248.7	228.5	213.7	185.9	200.1	171.6	133.8	107.9	88.10	76.64	68.49	53.91
490.0	153.5	133.5	215.4	249.3	222.1	343.1	356.2	465.4	461.2	496.0	521.9	543.8	565.3	587.0	583.4	546.4	539.3	531.8	455.7	393.3	369.4	338.6	339.6	334.9	329.4	327.7	326.7	332.7	345.1	354.0	355.5	366.3	355.9	407.5	363.3	345.7	327.9	296.6	274.0	244.6	226.3	198.0	185.5	167.9	180.1	150.4	130.7	94.80	82.61	71.65	61.40
495.0	116.3	158.4	209.9	200.4	261.0	286.8	399.1	445.7	469.8	460.0	529.6	492.9	568.7	530.3	550.8	513.3	471.1	480.1	397.0	387.5	343.4	339.9	306.4	313.2	322.4	299.5	309.0	322.8	312.2	321.3	332.3	332.2	344.2	360.7	350.8	321.1	307.3	266.0	246.4	236.3	208.2	199.9	176.4	157.8	159.2	164.2	130.9	97.82	84.42	74.03	65.79
500.0	140.7	117.7	222.3	195.0	240.2	304.4	324.5	353.2	408.4	406.6	416.4	481.8	506.1	536.1	536.7	521.1	467.1	450.7	403.7	364.5	341.0	308.4	299.7	295.9	269.1	271.8	273.2	288.8	303.1	289.3	298.3	299.9	302.6	345.7	305.6	292.8	279.3	259.3	232.1	216.6	197.8	180.0	164.1	153.1	149.6	154.0	136.1	107.5	87.18	76.07	66.94
505.0	125.9	168.1	216.2	209.2	275.5	229.1	289.0	353.8	409.1	407.3	401.6	411.6	438.6	453.9	481.8	472.8	433.6	405.1	349.5	317.8	291.8	260.5	264.6	252.5	248.4	251.8	251.6	266.2	262.8	264.4	279.1	279.9	280.7	294.6	278.7	273.4	257.6	231.8	215.1	203.1	189.7	167.3	158.8	147.5	130.4	129.2	133.9	117.8	84.80	75.49	70.11
510.0	60.23	142.2	155.2	168.1	226.5	237.2	269.5	335.3	313.8	340.2	381.1	425.3	419.2	393.4	429.4	423.6	400.6	339.4	321.5	302.4	257.0	247.0	249.2	239.6	234.7	225.4	236.1	216.7	228.3	239.0	249.4	249.2	255.5	259.7	262.1	240.3	230.9	212.4	199.9	188.2	177.1	162.8	154.3	140.4	128.7	118.2	111.6	120.6	100.2	74.92	67.61
515.0	125.0	87.81	162.0	143.5	138.7	162.9	261.1	276.3	311.3	304.1	359.0	355.4	370.3	397.6	418.2	373.4	371.2	344.5	300.6	271.9	260.6	223.9	223.4	209.7	206.1	204.3	206.9	210.5	218.4	225.7	232.8	221.0	221.5	242.2	232.3	222.2	215.2	193.6	183.5	175.5	163.5	146.3	142.2	132.9	119.4	105.3	95.65	98.71	110.9	81.98	68.24
520.0	68.92	96.17	126.6	192.9	159.2	181.0	243.5	279.4	264.5	309.8	297.5	308.6	323.7	318.0	358.9	369.6	323.3	317.9	264.0	252.1	233.7	205.6	206.0	193.7	193.5	181.4	187.5	193.0	188.8	188.8	195.5	202.0	210.0	213.6	207.3	202.3	189.1	182.9	172.2	163.9	148.9	136.2	130.9	115.9	108.0	110.2	90.25	90.40	95.41	85.46	73.87
525.0	66.89	106.5	130.1	108.9	178.6	214.7	199.5	248.7	254.3	248.8	285.0	264.4	312.6	345.2	327.3	328.7	303.9	272.3	250.8	214.7	207.3	192.9	183.7	174.7	161.5	167.8	166.1	163.7	166.8	181.8	160.5	167.8	180.2	187.8	191.2	174.0	180.9	157.9	149.7	147.1	134.1	130.9	116.3	107.4	99.25	95.36	88.55	83.28	77.83	84.90	73.04
530.0	43.67	80.39	142.0	92.32	131.8	175.0	155.8	225.5	202.5	213.8	261.8	267.6	274.0	316.9	317.2	315.3	284.7	255.7	237.1	197.9	178.0	179.8	160.5	157.7	153.6	150.2	149.0	151.8	136.6	149.6	158.6	144.4	160.9	168.0	156.6	163.9	160.2	134.0	141.9	128.8	126.2	106.2	108.2	95.93	98.42	86.67	82.64	76.08	72.32	73.84	72.90
535.0	86.09	60.29	95.06	113.2	142.6	132.6	188.4	181.6	195.6	232.2	217.6	258.2	224.9	258.2	280.1	264.1	250.0	229.3	207.8	188.9	163.7	150.1	155.2	145.5	131.8	135.2	134.0	135.5	135.5	136.0	139.6	135.5	142.2	154.7	148.0	144.6	134.8	130.6	123.9	115.7	107.5	104.0	100.9	89.64	83.28	80.86	75.28	74.32	67.79	68.27	63.96
540.0	79.72	55.05	117.2	79.14	134.9	121.8	119.2	163.9	165.4	185.1	178.1	208.3	214.3	240.8	238.1	244.1	227.3	198.3	184.5	167.6	163.9	131.1	126.8	123.3	118.9	115.6	119.8	111.5	120.6	118.6	126.1	120.0	126.9	140.4	131.1	121.1	122.0	111.8	108.2	97.20	94.23	92.98	87.29	80.92	78.73	74.46	68.40	65.08	58.50	57.16	53.92
545.0	58.74	55.96	85.09	140.3	62.89	116.2	109.4	137.2	143.2	164.7	170.7	197.3	197.6	218.0	221.3	302.0	226.1	185.1	170.3	158.8	133.9	133.2	125.3	113.6	109.3	103.4	106.1	104.8	106.7	110.1	112.2	106.2	111.4	118.5	111.8	112.1	111.7	103.4	95.32	92.09	89.43	81.08	81.58	76.48	67.19	67.24	63.30	59.00	53.49	54.28	48.41
550.0	64.78	68.47	107.5	79.53	81.21	93.99	144.5	135.7	128.3	183.5	154.1	170.1	165.7	185.2	204.4	305.6	239.0	173.4	158.1	136.5	132.1	120.6	110.5	103.3	100.8	107.9	98.22	99.30	89.98	98.71	98.65	101.0	103.5	99.90	104.5	101.8	104.8	90.43	89.54	80.98	80.09	75.92	71.55	68.50	64.24	62.94	61.45	54.58	51.30	49.07	45.60
