Sample:	'SLABO1-5-5-320
File name:	3N9.FD3
Run Date:	15:38:35, 08/24/2022
Operator:	Administrator
Comment:	'

Instrument
Model:	F-7000 FL Spectrophotometer
Serial Number:	2354-007
ROM Version:	5J14000 06

Instrument Parameters
Measurement type:	3-D Scan
Data mode:	Fluorescence
EX  Start WL:	200.0 nm
EX  End WL:	450.0 nm
EX Sampling Interval:	5.0 nm
EM  Start WL:	280.0 nm
EM  End WL:	550.0 nm
EM Sampling Interval:	5.0 nm
Scan speed:	12000 nm/min
EX Slit:	5.0 nm
EM Slit:	5.0 nm
PMT Voltage:	700 V
Response:	Auto 
Corrected spectra:	Off
Shutter control:	On
Contour interval:	25.000

Peak integration
Integration method:	Rectangular
Sensitivity:	1
Threshold:	1.000

Peaks
No.	ApexEX/EM(nm)	Height(Data)
1	205.0/310.0	739.5
2	205.0/480.0	347.8
3	210.0/535.0	195.6
4	215.0/315.0	676.0
5	215.0/510.0	403.1
6	220.0/310.0	741.3
7	220.0/320.0	737.1
8	225.0/300.0	686.5
9	230.0/350.0	 1219
10	235.0/365.0	 1367
11	235.0/405.0	 1530
12	235.0/535.0	336.4
13	240.0/380.0	 1414
14	240.0/400.0	 1564
15	245.0/385.0	 1419
16	245.0/435.0	 1509
17	250.0/370.0	 1284
18	250.0/400.0	 1542
19	260.0/425.0	 1617
20	265.0/290.0	315.7
21	265.0/400.0	 1589
22	265.0/410.0	 1643
23	270.0/375.0	 1528
24	270.0/420.0	 1615
25	275.0/305.0	835.4
26	275.0/415.0	 1623
27	275.0/430.0	 1580
28	280.0/310.0	958.5
29	285.0/315.0	936.4
30	290.0/320.0	893.5
31	290.0/375.0	 1350
32	295.0/330.0	774.4
33	295.0/395.0	 1397
34	300.0/335.0	745.8
35	305.0/340.0	732.9
36	330.0/410.0	 1470
37	335.0/415.0	 1472
38	395.0/315.0	3.003
39	400.0/320.0	2.894
40	405.0/325.0	3.131
41	410.0/335.0	3.196
42	430.0/340.0	4.004

Data Points
	200.0	205.0	210.0	215.0	220.0	225.0	230.0	235.0	240.0	245.0	250.0	255.0	260.0	265.0	270.0	275.0	280.0	285.0	290.0	295.0	300.0	305.0	310.0	315.0	320.0	325.0	330.0	335.0	340.0	345.0	350.0	355.0	360.0	365.0	370.0	375.0	380.0	385.0	390.0	395.0	400.0	405.0	410.0	415.0	420.0	425.0	430.0	435.0	440.0	445.0	450.0
280.0	119.9	28.70	9.867	48.59	37.69	51.86	27.08	15.38	13.96	24.05	38.80	76.09	59.76	22.95	20.22	324.7	 2245	 1009	26.34	4.250	6.408	6.358	3.707	2.667	3.416	1.710	1.740	1.358	1.228	2.525	1.573	1.881	2.091	1.762	2.133	1.023	1.087	1.759	1.444	0.793	0.647	0.676	0.589	1.249	0.586	0.446	1.330	1.131	1.252	0.872	0.862
285.0	236.1	127.3	116.0	172.7	188.0	181.8	95.84	67.19	36.82	65.02	110.5	115.6	158.9	127.5	59.77	59.33	883.1	 5415	 3351	228.5	7.480	6.867	5.689	2.909	4.294	3.853	2.385	2.757	2.359	2.969	1.996	2.278	2.038	1.159	1.653	1.518	1.045	1.421	1.877	1.325	1.401	0.963	1.090	1.208	0.949	1.098	1.336	1.463	1.213	1.614	1.323
290.0	308.7	372.1	273.8	336.6	346.4	395.1	258.1	130.0	72.31	105.6	136.5	141.9	179.1	315.7	164.8	99.11	142.9	 1762	 9166	 6367	292.5	11.16	7.963	6.919	5.710	4.490	4.798	2.886	2.953	1.933	0.920	2.194	2.459	1.965	2.041	1.746	0.535	1.760	1.835	1.536	1.529	1.166	0.858	1.394	0.969	1.557	1.144	1.503	2.340	1.584	1.271
295.0	559.9	474.1	299.6	448.0	435.3	603.5	385.6	221.9	96.10	131.3	182.5	178.5	184.6	311.8	449.1	242.4	181.7	241.0	 2676	9999.9	 7743	371.0	10.27	7.913	7.329	5.437	5.597	2.489	2.737	2.955	2.491	2.341	2.180	2.267	2.046	2.299	0.958	2.697	1.848	1.174	2.247	2.013	2.233	2.087	2.015	1.837	1.419	2.319	2.183	2.389	2.350
300.0	646.4	502.7	393.9	482.6	520.8	686.5	508.7	281.2	190.4	163.1	206.8	201.4	224.8	284.7	520.2	601.7	328.9	228.1	309.7	 4678	9999.9	 9232	377.7	12.36	7.495	7.167	6.687	3.789	3.036	2.851	2.230	2.444	3.685	3.176	1.664	2.050	2.464	1.809	1.638	1.722	1.603	2.352	2.432	1.082	2.463	1.842	1.915	2.506	2.029	2.805	2.744
305.0	691.5	537.7	452.2	540.8	600.3	645.6	570.2	371.7	265.5	232.4	245.1	267.1	254.2	339.1	427.6	835.4	672.7	355.5	228.5	400.0	 4184	9999.9	 8902	394.1	15.63	9.604	9.795	4.967	3.330	2.547	1.752	2.277	3.386	1.921	3.079	1.688	2.063	2.070	2.147	1.525	1.959	1.789	1.612	1.135	2.736	3.320	2.390	1.885	2.590	2.227	3.162
310.0	551.9	739.5	516.5	507.9	741.3	654.3	582.8	403.8	265.7	255.1	248.7	272.5	302.2	379.2	458.4	592.5	958.5	626.3	285.5	170.0	351.2	 4434	9999.9	 9883	453.3	15.48	15.70	6.835	6.588	4.439	2.574	4.683	2.908	2.068	2.187	1.567	2.069	2.118	2.416	1.970	2.453	2.553	1.664	1.942	1.326	3.335	2.425	2.720	2.532	3.599	3.116
315.0	437.6	505.3	379.6	676.0	593.7	622.3	574.1	387.5	299.2	276.9	275.3	338.5	346.6	415.1	468.4	560.3	712.9	936.4	475.7	221.8	142.2	365.1	 4578	9999.9	 9640	381.8	21.97	11.71	7.470	4.726	4.630	4.647	3.016	3.133	3.149	1.547	1.898	1.858	1.974	3.003	2.192	2.697	2.201	1.987	1.880	2.487	2.063	2.778	2.235	2.887	3.306
320.0	448.2	402.8	469.8	514.7	737.1	715.2	732.0	485.2	362.3	302.0	304.5	350.4	395.5	450.4	541.2	631.8	688.3	829.2	893.5	327.5	183.4	143.9	365.6	 5217	9999.9	9999.9	378.6	13.12	12.01	10.75	6.076	5.293	4.743	3.626	2.587	2.623	1.995	1.414	2.234	1.792	2.894	2.244	2.238	2.518	1.874	1.948	2.353	2.560	3.013	2.832	3.249
325.0	364.3	458.0	509.6	502.3	699.1	889.9	922.7	678.6	485.8	387.2	331.3	390.7	440.4	514.7	567.2	671.8	767.1	696.4	760.2	715.5	284.1	183.6	157.0	419.1	 4433	9999.9	9999.9	361.0	15.74	10.04	9.636	7.952	6.088	4.003	3.259	2.967	3.143	2.183	1.806	2.226	1.828	3.131	1.795	2.517	2.442	2.083	2.318	2.406	1.950	2.874	3.446
330.0	253.0	413.1	471.7	543.5	662.8	979.5	980.0	940.5	596.1	438.2	380.8	397.3	450.1	531.0	612.0	714.9	812.5	707.9	642.2	774.4	605.0	274.2	192.4	156.1	368.9	 4687	9999.9	9999.9	334.1	18.69	9.431	9.156	8.136	4.326	3.906	3.537	2.309	2.978	2.303	1.943	2.127	2.136	2.146	2.506	1.738	2.135	2.471	2.421	2.895	3.322	3.930
335.0	270.0	327.9	499.6	518.1	607.4	859.1	 1033	911.9	651.9	515.7	445.5	460.2	491.5	577.4	686.1	759.1	839.5	809.8	677.8	602.3	745.8	511.4	257.6	192.9	145.2	393.0	 6932	9999.9	 9657	358.9	17.86	13.00	9.143	8.014	6.800	3.814	3.356	1.992	2.597	1.947	1.664	1.657	3.196	2.171	2.643	2.916	2.172	2.101	2.208	2.627	4.502
340.0	260.4	327.2	454.0	494.3	704.0	909.1	 1136	 1045	767.9	622.8	516.4	512.5	615.2	601.6	727.5	799.9	890.5	888.9	769.8	617.8	602.5	732.9	454.3	253.0	192.4	169.9	546.1	 3550	9999.9	9999.9	373.9	19.77	14.13	8.558	8.811	4.431	3.640	3.557	2.359	2.243	2.794	2.818	2.901	2.406	2.863	2.148	4.004	2.865	2.630	3.317	5.055
345.0	293.1	297.4	417.9	529.8	658.9	 1002	 1162	 1098	798.7	659.0	604.7	573.7	620.7	663.6	774.6	860.7	911.1	898.7	844.0	722.7	632.5	627.9	726.4	429.9	289.1	209.1	200.8	346.3	 3691	9999.9	9999.9	380.9	21.95	14.66	10.84	6.307	4.331	3.080	3.307	2.972	1.662	2.670	2.391	2.011	2.406	2.536	2.301	3.977	2.863	4.042	3.906
350.0	217.1	486.0	419.2	562.0	792.6	 1022	 1219	 1181	 1020	794.6	733.0	723.0	724.6	764.4	905.0	990.9	 1016	981.9	936.8	844.9	725.7	624.9	728.6	743.8	441.9	313.3	262.1	196.8	355.0	 3528	9999.9	9999.9	378.6	21.68	11.90	10.21	6.030	4.023	3.195	2.835	2.796	3.385	2.587	2.728	2.336	3.052	2.337	3.504	3.233	4.422	3.181
355.0	301.9	363.4	456.4	587.0	728.6	 1008	 1101	 1157	 1049	901.3	888.5	790.7	869.4	 1003	 1079	 1046	 1110	 1063	 1033	926.7	800.5	749.0	704.0	799.0	745.9	489.5	371.4	289.9	220.4	353.1	 3551	9999.9	9999.9	400.8	19.86	11.41	9.555	6.642	4.903	2.840	2.749	2.766	2.164	2.733	2.789	2.745	3.677	3.558	2.823	4.164	3.886
360.0	245.6	356.1	502.7	557.7	746.4	 1003	 1244	 1281	 1177	 1050	 1017	 1046	 1062	 1174	 1186	 1197	 1220	 1160	 1075	 1027	943.7	874.9	821.6	786.2	894.9	749.4	505.5	405.1	299.9	222.7	365.6	 4225	9999.9	9999.9	384.8	17.87	11.22	9.054	5.910	4.612	2.513	3.403	3.870	2.850	2.833	3.026	2.957	4.198	3.318	4.375	4.180
365.0	304.9	307.5	488.6	608.1	768.9	 1053	 1188	 1367	 1208	 1105	 1105	 1120	 1211	 1299	 1249	 1278	 1275	 1245	 1170	 1121	 1049	 1004	945.2	889.3	879.7	 1007	766.6	532.6	428.5	313.0	239.2	402.7	 5274	9999.9	9999.9	387.3	16.44	11.27	8.906	6.427	4.053	4.277	4.034	4.288	3.358	2.563	3.001	3.350	3.312	4.425	4.331
370.0	235.7	409.1	375.7	679.0	799.7	 1055	 1097	 1279	 1262	 1240	 1284	 1215	 1332	 1390	 1328	 1345	 1313	 1249	 1233	 1201	 1132	 1099	 1062	 1005	928.9	975.8	 1030	737.8	545.7	420.4	310.2	217.1	455.4	 3740	9999.9	9999.9	332.6	15.21	12.71	8.831	4.846	5.278	4.505	4.109	3.643	3.595	3.084	2.621	3.654	4.322	4.752
375.0	278.8	309.9	518.0	596.5	868.8	 1051	 1232	 1295	 1329	 1254	 1281	 1238	 1349	 1449	 1528	 1382	 1392	 1289	 1350	 1262	 1175	 1188	 1156	 1084	 1083	 1020	 1056	 1040	734.8	543.4	417.7	306.0	220.9	352.8	 3761	9999.9	 9147	362.9	14.27	10.93	9.788	6.037	4.931	3.708	4.102	3.592	3.815	3.706	3.808	3.950	3.558
380.0	231.1	501.6	551.8	682.1	819.6	 1060	 1212	 1336	 1414	 1412	 1280	 1388	 1386	 1498	 1460	 1387	 1396	 1358	 1275	 1288	 1293	 1306	 1268	 1241	 1175	 1138	 1058	 1113	991.1	683.4	519.1	388.5	274.2	198.7	355.9	 3535	9999.9	 8938	342.4	17.91	10.54	6.426	4.861	5.395	3.804	3.251	4.634	3.075	3.757	3.651	5.262
385.0	470.5	458.5	474.7	687.2	 1031	 1119	 1234	 1390	 1392	 1419	 1413	 1400	 1424	 1497	 1474	 1464	 1439	 1377	 1330	 1279	 1254	 1293	 1302	 1292	 1282	 1220	 1196	 1108	 1122	917.1	646.6	496.1	375.7	277.7	210.6	340.7	 2728	9999.9	 9270	370.1	14.16	10.78	8.440	6.759	4.678	4.566	3.781	3.200	4.203	4.541	4.124
390.0	290.5	432.8	568.3	689.9	900.8	 1121	 1362	 1394	 1408	 1412	 1488	 1458	 1474	 1538	 1510	 1504	 1477	 1389	 1359	 1331	 1302	 1342	 1349	 1357	 1350	 1293	 1262	 1178	 1106	 1114	826.7	600.1	487.5	371.9	274.9	203.8	286.3	 2671	9999.9	 8727	292.0	16.97	10.77	9.996	5.642	4.887	3.805	3.926	4.321	4.911	5.266
395.0	413.4	407.1	546.7	650.0	869.7	 1038	 1377	 1360	 1460	 1382	 1511	 1501	 1542	 1556	 1462	 1533	 1511	 1450	 1370	 1397	 1348	 1368	 1395	 1385	 1391	 1372	 1365	 1240	 1162	 1090	 1068	782.2	599.9	487.0	369.6	269.8	197.2	280.9	 2532	9999.9	 7971	367.5	17.62	12.42	8.989	6.759	5.157	4.877	4.364	5.136	4.765
400.0	293.7	382.1	501.7	753.3	 1015	 1139	 1280	 1440	 1564	 1455	 1542	 1492	 1587	 1589	 1542	 1566	 1552	 1437	 1424	 1386	 1365	 1363	 1412	 1419	 1411	 1408	 1456	 1348	 1259	 1154	 1130	 1015	769.6	623.7	493.9	367.5	253.7	188.0	282.7	 2617	9999.9	 9244	304.6	17.06	9.981	7.851	4.716	5.388	5.115	5.808	5.863
405.0	336.8	428.9	573.3	725.3	979.6	 1219	 1371	 1530	 1456	 1473	 1466	 1517	 1544	 1532	 1617	 1594	 1508	 1497	 1415	 1371	 1346	 1360	 1386	 1416	 1439	 1456	 1461	 1377	 1336	 1248	 1117	 1132	979.6	763.0	587.9	468.7	349.2	249.1	187.5	275.5	 2463	9999.9	 8215	302.4	14.69	11.34	8.137	7.257	5.591	6.138	5.442
410.0	335.9	484.4	708.6	766.6	890.3	 1054	 1368	 1308	 1408	 1498	 1508	 1553	 1618	 1643	 1642	 1563	 1510	 1480	 1456	 1385	 1333	 1343	 1410	 1434	 1431	 1446	 1470	 1437	 1380	 1291	 1187	 1131	 1120	913.1	711.2	567.7	433.7	316.9	229.7	181.1	261.8	 2315	9999.9	 8003	259.3	17.43	10.82	6.950	7.114	7.284	6.375
415.0	255.4	443.0	608.2	681.7	961.2	 1081	 1382	 1402	 1515	 1521	 1540	 1588	 1609	 1601	 1563	 1623	 1520	 1452	 1404	 1375	 1290	 1356	 1377	 1411	 1456	 1457	 1467	 1472	 1424	 1338	 1240	 1146	 1108	 1084	852.6	647.3	504.1	389.4	293.5	211.8	153.2	242.2	 2553	9999.9	 7056	257.8	14.02	10.06	8.005	7.292	6.152
420.0	280.7	361.7	529.5	720.3	919.9	 1205	 1315	 1473	 1492	 1521	 1542	 1566	 1554	 1580	 1615	 1567	 1506	 1457	 1422	 1362	 1282	 1324	 1345	 1392	 1410	 1410	 1462	 1471	 1413	 1370	 1281	 1209	 1148	 1103	996.3	773.4	594.8	448.1	342.0	249.5	178.2	130.7	244.6	 2310	9999.9	 7175	238.9	15.90	9.727	7.839	8.005
425.0	384.7	459.7	498.0	785.1	918.6	 1121	 1253	 1305	 1456	 1450	 1543	 1552	 1617	 1589	 1592	 1579	 1538	 1448	 1364	 1320	 1236	 1279	 1294	 1330	 1376	 1378	 1437	 1432	 1418	 1382	 1318	 1232	 1167	 1052	 1042	898.0	664.2	515.3	393.7	310.0	223.1	163.7	123.8	218.1	 2259	9999.9	 6770	186.2	15.30	9.591	8.325
430.0	345.7	406.0	560.3	759.5	976.9	 1092	 1175	 1350	 1418	 1446	 1449	 1547	 1596	 1563	 1580	 1580	 1516	 1446	 1363	 1285	 1279	 1214	 1257	 1304	 1329	 1349	 1390	 1390	 1377	 1339	 1308	 1255	 1190	 1122	 1023	957.8	779.7	589.2	445.4	357.3	266.0	200.7	145.1	109.0	210.5	 2239	9999.9	 5814	175.7	12.31	11.03
435.0	345.8	473.2	557.8	609.6	834.8	979.0	 1165	 1371	 1333	 1509	 1444	 1503	 1554	 1572	 1580	 1511	 1521	 1399	 1305	 1252	 1203	 1186	 1227	 1229	 1259	 1308	 1330	 1353	 1328	 1323	 1305	 1281	 1224	 1135	 1029	939.7	848.9	657.0	502.0	394.0	322.7	246.7	188.3	136.4	102.5	206.3	 2093	9999.9	 5824	169.5	16.09
440.0	254.7	417.1	487.6	658.4	790.7	 1050	 1212	 1288	 1310	 1325	 1426	 1491	 1545	 1537	 1573	 1487	 1455	 1382	 1325	 1217	 1162	 1140	 1182	 1201	 1199	 1257	 1266	 1308	 1314	 1311	 1264	 1244	 1204	 1129	 1047	934.0	850.5	742.6	572.4	441.7	357.7	294.6	223.7	171.4	116.1	97.75	196.7	 2441	9999.9	 5449	173.8
445.0	241.0	444.4	542.9	668.9	785.0	951.8	 1099	 1280	 1251	 1353	 1418	 1495	 1478	 1451	 1469	 1462	 1426	 1367	 1260	 1184	 1101	 1082	 1129	 1132	 1152	 1178	 1218	 1216	 1264	 1247	 1231	 1194	 1178	 1140	 1038	958.6	832.1	760.1	653.9	489.2	398.1	322.1	253.8	201.4	153.8	119.0	95.73	217.7	 2369	9999.9	 5649
450.0	282.2	414.3	463.8	584.1	695.2	910.8	979.4	 1092	 1142	 1282	 1312	 1370	 1464	 1440	 1472	 1464	 1368	 1286	 1206	 1128	 1081	 1044	 1056	 1053	 1072	 1095	 1147	 1155	 1208	 1173	 1188	 1162	 1166	 1107	 1025	943.8	819.5	730.0	680.8	563.7	421.5	351.8	285.3	236.9	178.3	145.9	112.0	93.12	207.6	 2035	9999.9
455.0	286.7	400.3	388.6	538.5	709.3	864.4	 1106	 1113	 1174	 1223	 1268	 1397	 1376	 1418	 1381	 1387	 1299	 1225	 1154	 1090	 1029	983.3	983.2	 1008	 1003	 1036	 1077	 1078	 1115	 1117	 1110	 1132	 1078	 1076	 1007	900.2	814.0	721.9	636.6	588.2	489.7	385.0	311.8	261.6	212.6	178.3	130.2	97.67	85.22	178.9	 2338
460.0	246.6	369.0	407.8	476.2	707.4	750.0	987.8	 1042	 1129	 1156	 1193	 1295	 1288	 1312	 1326	 1351	 1241	 1198	 1057	 1018	959.6	928.7	920.7	916.8	947.0	950.6	 1008	 1021	 1049	 1054	 1049	 1041	 1019	 1033	976.6	891.4	790.5	704.3	612.2	571.2	506.7	410.2	343.4	290.3	245.4	195.0	158.8	125.5	88.06	76.84	197.3
465.0	297.3	275.9	464.3	601.1	634.6	809.2	977.9	 1015	 1072	 1087	 1100	 1205	 1249	 1256	 1314	 1251	 1207	 1096	 1003	959.7	868.0	855.4	862.3	860.9	874.7	902.2	899.8	956.7	970.1	992.3	992.4	983.1	979.3	956.7	939.9	860.3	778.5	689.9	602.0	537.6	508.8	451.0	366.1	300.8	256.9	217.5	182.9	145.3	107.5	80.71	73.20
470.0	245.3	296.4	435.6	434.0	662.3	731.3	799.5	974.8	984.8	 1051	 1065	 1147	 1137	 1198	 1199	 1190	 1143	 1030	944.0	895.0	794.0	795.7	794.4	787.0	820.9	843.7	837.4	849.8	874.9	901.9	914.6	900.1	912.6	905.6	875.5	822.5	742.9	659.5	607.0	529.7	476.5	453.4	392.8	311.2	267.0	241.4	192.4	152.4	121.8	97.17	72.49
475.0	240.3	318.6	303.8	462.0	535.6	634.3	681.0	782.2	939.7	942.6	984.8	 1029	 1095	 1050	 1116	 1114	 1016	997.5	909.6	853.9	760.2	742.0	725.8	707.6	724.0	749.8	769.8	784.5	791.5	824.2	819.5	842.9	829.2	846.0	816.3	778.6	699.2	636.5	569.3	515.0	447.2	421.9	401.7	337.3	279.9	237.6	197.9	163.1	132.6	105.1	85.36
480.0	164.9	347.8	281.4	349.5	558.6	562.5	644.9	781.6	790.1	881.5	822.4	942.5	 1041	974.7	 1008	 1058	975.6	912.3	835.3	775.8	720.8	692.7	685.5	667.9	696.4	684.9	678.8	718.3	722.4	743.5	776.0	770.0	773.8	775.8	760.7	694.6	653.5	598.4	549.4	492.9	451.8	398.7	371.7	352.3	300.0	237.1	204.6	174.0	133.8	118.1	88.60
485.0	212.1	280.0	269.6	386.2	481.4	523.5	629.6	686.2	829.4	779.6	873.8	890.0	913.4	986.4	 1010	964.3	931.5	869.5	766.1	722.7	665.5	630.7	623.0	633.7	636.0	640.8	660.5	662.8	688.8	680.8	696.1	727.9	719.4	737.6	717.7	679.6	619.1	567.1	529.1	484.8	439.2	389.9	370.2	349.7	308.9	254.0	218.2	185.3	154.2	132.8	99.34
490.0	213.1	248.7	279.2	364.6	426.3	577.1	517.8	651.5	744.3	796.5	834.4	835.9	887.8	956.9	950.9	922.8	913.0	826.5	746.0	696.5	648.3	605.6	597.3	601.6	602.3	584.7	587.2	597.6	649.4	618.6	641.9	641.4	655.4	671.7	651.1	621.0	606.0	536.8	494.0	462.7	419.9	383.1	355.7	314.1	310.3	272.0	217.1	189.5	160.4	133.4	114.0
495.0	103.7	159.6	275.2	363.3	403.6	501.8	573.0	624.1	690.6	700.3	770.7	771.6	793.3	921.3	905.2	879.5	882.6	751.0	690.9	654.8	607.8	574.8	554.3	550.4	517.6	551.9	549.7	558.4	579.2	576.7	598.7	602.1	608.8	611.8	616.5	591.3	569.3	516.3	465.2	432.4	400.1	374.0	334.2	314.3	296.6	281.5	236.7	190.5	170.3	140.9	119.6
500.0	115.7	269.9	273.4	282.2	346.2	427.2	468.8	598.7	649.9	714.7	737.8	745.8	738.8	806.6	816.7	831.4	780.2	711.6	656.6	593.1	549.4	534.3	507.9	505.1	489.4	493.2	495.2	501.2	532.1	537.6	534.1	548.9	564.2	569.2	570.8	551.8	511.1	487.3	455.0	409.8	390.9	346.5	329.8	307.6	266.4	264.5	242.3	199.5	170.4	145.1	125.9
505.0	144.6	186.1	268.9	284.0	368.3	383.0	492.7	530.2	531.4	617.7	621.7	685.4	703.5	760.1	733.3	765.6	751.7	649.6	612.8	567.1	501.0	481.7	453.9	469.7	452.8	459.2	461.6	458.6	486.5	481.6	495.0	506.0	499.3	508.6	513.6	500.0	465.0	452.6	415.5	382.5	350.8	329.2	306.2	284.0	262.0	240.2	232.3	218.8	177.0	145.0	123.5
510.0	112.5	164.4	180.0	403.1	365.4	353.5	423.3	502.1	492.9	545.0	603.6	611.3	666.6	653.4	689.8	669.3	647.6	634.9	547.6	528.2	477.1	440.7	415.3	425.5	407.6	393.8	421.8	408.4	422.7	442.1	445.0	444.7	477.5	467.6	469.5	450.1	423.9	403.1	369.3	355.4	335.7	304.3	286.8	270.5	252.5	231.1	214.4	203.4	180.4	151.3	130.5
515.0	124.4	196.9	202.7	206.7	300.9	395.5	390.8	461.0	476.7	502.9	512.0	566.4	561.4	606.6	632.2	612.2	578.5	573.0	502.9	459.8	432.3	400.8	385.0	379.7	371.0	370.0	375.9	376.3	380.5	395.7	382.7	397.6	408.3	428.8	430.0	413.6	404.7	369.0	347.5	333.7	310.9	292.0	272.1	256.3	236.1	213.8	203.0	185.4	177.4	147.6	131.1
520.0	103.2	107.7	161.0	195.6	239.4	334.2	331.2	406.3	410.5	440.1	473.9	519.8	503.8	555.7	583.1	571.8	536.6	495.5	437.3	411.7	382.1	360.7	359.0	341.2	324.8	343.8	349.2	349.7	350.3	364.0	350.2	357.0	376.7	380.6	387.9	366.1	354.3	333.3	316.3	291.4	275.6	269.6	257.1	241.7	217.6	200.6	188.8	175.6	168.1	159.1	122.7
525.0	109.4	120.9	157.5	175.9	251.8	230.0	306.9	363.5	419.5	430.5	405.7	488.7	483.8	535.9	516.6	494.5	489.6	447.8	412.0	382.6	341.0	316.6	316.1	291.7	295.1	308.3	307.8	303.0	313.6	303.9	323.4	318.9	345.7	348.1	344.9	327.0	319.2	303.5	290.9	272.2	245.0	249.3	226.7	216.0	195.6	192.3	167.5	162.6	149.1	151.4	131.8
530.0	106.0	85.10	122.5	128.2	201.6	249.7	296.9	300.0	382.1	379.7	384.6	392.2	427.1	477.8	474.4	496.3	441.6	403.9	381.7	329.7	292.5	307.0	269.0	282.7	276.1	263.6	268.6	269.8	268.2	284.1	279.9	293.2	290.6	309.3	309.2	305.8	292.7	272.8	257.0	248.8	237.1	217.0	213.5	197.0	190.0	171.1	167.3	148.6	140.0	130.7	124.4
535.0	93.79	116.5	195.6	138.5	199.3	241.8	252.0	336.4	313.4	339.8	357.0	331.3	408.5	397.7	440.3	456.3	412.6	372.4	331.1	297.0	289.3	267.5	251.2	247.8	240.5	241.3	244.8	257.4	248.6	258.9	254.4	255.9	264.9	276.0	283.7	261.3	261.1	251.2	235.8	223.1	213.3	208.1	193.2	179.1	171.4	154.0	152.7	137.9	126.8	118.7	116.0
540.0	138.3	99.90	83.61	141.3	133.4	207.0	207.1	254.5	260.4	319.8	327.5	336.4	369.6	374.5	381.9	387.9	375.3	360.0	311.5	269.2	244.3	230.1	235.1	220.1	227.0	205.6	219.7	218.7	225.0	224.1	229.5	234.8	237.4	249.7	242.4	234.2	226.4	220.4	208.5	201.9	190.7	183.0	175.3	166.6	161.6	143.1	130.6	136.8	117.9	106.7	98.77
545.0	88.43	113.5	98.55	115.4	143.0	188.0	204.9	238.6	266.1	270.2	273.5	270.6	342.4	348.5	379.3	418.1	335.9	314.4	267.6	248.3	226.6	212.9	194.3	197.9	200.0	180.6	187.3	190.3	188.4	194.1	195.6	215.0	197.1	220.5	214.3	215.2	206.6	193.1	193.8	184.6	177.9	159.9	155.2	143.4	141.8	136.8	123.3	113.5	109.9	95.31	90.87
550.0	94.32	109.3	64.65	113.1	153.0	150.5	216.0	217.5	246.1	216.0	287.9	280.0	319.0	297.6	349.8	441.8	314.2	287.2	260.1	232.6	213.3	197.3	189.6	190.4	160.7	168.3	170.7	176.8	176.0	187.3	174.9	191.0	190.4	192.2	201.9	188.2	186.2	190.7	174.9	155.6	158.1	149.7	141.6	131.8	127.2	121.3	116.2	109.3	101.8	90.09	87.14
