Sample:	'SLABO1-5-5-320
File name:	3P1.FD3
Run Date:	15:55:08, 08/24/2022
Operator:	Administrator
Comment:	'

Instrument
Model:	F-7000 FL Spectrophotometer
Serial Number:	2354-007
ROM Version:	5J14000 06

Instrument Parameters
Measurement type:	3-D Scan
Data mode:	Fluorescence
EX  Start WL:	200.0 nm
EX  End WL:	450.0 nm
EX Sampling Interval:	5.0 nm
EM  Start WL:	280.0 nm
EM  End WL:	550.0 nm
EM Sampling Interval:	5.0 nm
Scan speed:	12000 nm/min
EX Slit:	5.0 nm
EM Slit:	5.0 nm
PMT Voltage:	700 V
Response:	Auto 
Corrected spectra:	Off
Shutter control:	On
Contour interval:	25.000

Peak integration
Integration method:	Rectangular
Sensitivity:	1
Threshold:	1.000

Peaks
No.	ApexEX/EM(nm)	Height(Data)
1	205.0/340.0	364.6
2	210.0/320.0	356.3
3	210.0/350.0	340.8
4	210.0/535.0	111.3
5	215.0/540.0	130.2
6	225.0/300.0	497.5
7	225.0/335.0	653.4
8	225.0/350.0	667.7
9	230.0/305.0	500.8
10	230.0/330.0	660.0
11	230.0/445.0	574.6
12	230.0/505.0	291.0
13	230.0/520.0	218.0
14	235.0/340.0	688.3
15	235.0/355.0	689.4
16	235.0/385.0	708.1
17	240.0/365.0	665.0
18	240.0/390.0	722.8
19	240.0/420.0	781.3
20	240.0/510.0	305.5
21	245.0/395.0	794.8
22	245.0/450.0	693.6
23	250.0/295.0	690.0
24	250.0/380.0	699.2
25	250.0/415.0	815.2
26	250.0/430.0	773.9
27	255.0/320.0	324.8
28	255.0/400.0	776.2
29	255.0/450.0	739.2
30	260.0/380.0	684.6
31	260.0/420.0	760.0
32	260.0/430.0	743.4
33	265.0/385.0	694.2
34	265.0/410.0	742.8
35	265.0/425.0	750.4
36	270.0/370.0	611.5
37	270.0/400.0	759.4
38	270.0/435.0	768.1
39	270.0/450.0	729.6
40	270.0/510.0	360.3
41	275.0/305.0	761.4
42	275.0/335.0	491.8
43	275.0/360.0	582.9
44	275.0/385.0	721.2
45	275.0/405.0	766.4
46	275.0/415.0	781.3
47	275.0/525.0	277.3
48	280.0/310.0	856.1
49	280.0/345.0	552.2
50	280.0/365.0	657.1
51	280.0/375.0	675.7
52	280.0/395.0	737.7
53	285.0/315.0	873.4
54	285.0/370.0	634.8
55	285.0/385.0	668.4
56	290.0/320.0	778.3
57	290.0/390.0	679.8
58	295.0/325.0	645.3
59	300.0/335.0	627.8
60	305.0/340.0	623.0
61	305.0/400.0	636.3
62	310.0/345.0	579.2
63	310.0/405.0	648.1
64	315.0/350.0	536.3
65	320.0/360.0	553.5
66	325.0/365.0	599.8
67	325.0/420.0	653.6
68	330.0/370.0	598.8
69	330.0/410.0	651.4
70	335.0/375.0	588.6
71	340.0/385.0	594.3
72	345.0/390.0	593.8
73	350.0/395.0	566.5
74	355.0/305.0	4.409
75	355.0/405.0	541.7
76	360.0/410.0	550.0
77	365.0/415.0	555.0
78	370.0/420.0	509.3
79	375.0/320.0	3.814
80	375.0/430.0	477.6
81	390.0/450.0	322.0
82	405.0/300.0	2.969
83	405.0/470.0	223.8
84	410.0/475.0	197.5
85	415.0/480.0	171.1
86	420.0/490.0	150.3
87	425.0/495.0	132.3
88	430.0/350.0	3.071
89	435.0/320.0	2.862
90	440.0/515.0	86.85
91	445.0/305.0	3.043

Data Points
	200.0	205.0	210.0	215.0	220.0	225.0	230.0	235.0	240.0	245.0	250.0	255.0	260.0	265.0	270.0	275.0	280.0	285.0	290.0	295.0	300.0	305.0	310.0	315.0	320.0	325.0	330.0	335.0	340.0	345.0	350.0	355.0	360.0	365.0	370.0	375.0	380.0	385.0	390.0	395.0	400.0	405.0	410.0	415.0	420.0	425.0	430.0	435.0	440.0	445.0	450.0
280.0	30.09	33.98	28.83	44.73	60.88	30.04	29.03	27.96	58.62	144.7	209.8	261.7	144.7	53.08	18.10	484.5	 2589	 1114	40.87	7.051	2.405	3.829	2.491	2.525	3.404	1.985	1.700	1.753	1.900	1.749	1.945	1.422	1.783	1.925	0.601	2.009	1.060	1.442	1.393	1.709	1.531	0.740	0.742	0.892	1.119	0.951	1.213	0.860	0.631	0.645	0.663
285.0	156.4	159.9	97.41	129.4	150.1	140.6	97.32	80.41	138.4	335.9	475.6	468.5	430.1	188.5	57.45	67.39	983.6	 9019	 3906	225.0	5.645	6.404	4.338	3.392	2.389	3.363	3.121	2.635	2.577	1.672	1.843	2.326	1.222	1.766	1.125	1.605	1.520	1.565	1.826	1.349	1.568	1.763	1.465	0.994	1.116	1.420	1.141	0.549	0.686	1.681	0.781
290.0	271.3	226.1	193.8	150.3	261.7	265.7	236.4	181.1	256.9	435.5	674.6	614.2	449.8	402.8	190.0	78.35	125.8	 3355	9999.9	 5510	278.4	8.662	7.947	5.682	3.074	4.614	2.399	2.767	2.652	1.618	1.313	2.566	2.101	2.282	2.088	1.411	1.719	1.300	2.172	1.389	1.666	1.337	1.190	0.843	1.193	1.228	1.139	0.893	0.907	1.214	1.423
295.0	457.7	267.4	293.1	292.2	299.5	436.2	376.7	177.9	266.8	519.9	690.0	583.7	435.4	399.2	470.7	228.8	127.6	310.1	 3190	9999.9	 7044	345.2	8.433	7.349	5.230	4.550	5.017	3.459	2.687	2.141	1.210	2.328	1.388	2.515	1.028	1.260	1.368	1.677	2.353	2.398	2.184	0.879	1.161	1.594	0.863	1.475	1.418	1.803	1.929	1.322	1.929
300.0	508.9	361.3	342.6	346.2	405.3	497.5	459.5	257.3	286.2	402.7	594.8	534.5	389.5	275.8	557.5	595.3	225.3	159.7	289.5	 3619	9999.9	 8401	353.2	10.94	7.602	6.153	6.118	3.354	2.636	4.119	2.766	2.169	2.815	2.120	1.919	2.124	2.522	2.561	2.434	2.356	2.350	2.969	1.965	1.285	1.678	1.611	2.433	0.969	2.004	2.808	1.920
305.0	537.4	424.1	310.4	346.1	482.8	493.5	500.8	313.4	284.2	388.5	445.9	409.7	338.5	286.7	330.0	761.4	604.1	240.1	150.0	298.9	 3661	9999.9	 8872	449.5	11.09	7.600	7.357	6.167	2.740	3.782	2.074	4.409	2.098	2.610	2.134	2.360	2.154	2.141	2.545	2.901	2.009	1.863	1.362	2.386	1.781	1.466	1.635	1.493	1.835	3.043	2.311
310.0	390.8	423.9	321.8	355.2	435.6	431.4	431.1	317.9	278.9	274.3	345.9	345.6	292.9	269.3	310.7	450.1	856.1	521.4	171.4	110.3	291.6	 3962	9999.9	 9837	435.6	16.14	11.94	8.023	5.789	4.234	3.542	2.288	2.985	2.756	2.336	2.967	2.037	2.129	2.294	1.710	2.238	2.069	2.430	0.979	1.827	2.364	1.495	1.868	2.314	1.538	2.506
315.0	436.2	398.5	332.1	314.0	407.7	406.2	376.1	387.5	284.8	280.9	323.0	292.3	286.4	302.5	319.3	382.7	519.8	873.4	341.9	128.0	97.70	305.0	 4451	9999.9	9999.9	380.0	17.46	10.05	8.771	5.442	5.380	3.541	3.063	3.307	3.031	2.215	1.811	1.885	1.900	2.051	1.851	1.622	2.123	1.608	1.795	1.951	1.754	1.806	1.847	2.402	2.120
320.0	354.3	351.3	356.3	326.6	356.1	425.6	501.5	357.5	301.8	277.2	293.0	324.8	299.0	325.7	361.9	401.9	417.1	562.5	778.3	264.7	112.0	90.81	335.8	 4281	9999.9	9999.9	413.5	13.78	9.638	6.601	6.189	6.300	4.549	2.490	2.991	3.814	1.540	3.547	2.259	2.303	2.570	1.988	2.375	2.641	1.842	2.105	2.184	2.862	2.501	2.123	2.775
325.0	298.6	289.0	290.9	345.2	361.5	545.3	607.1	535.6	279.0	285.3	289.1	292.8	303.5	367.1	372.2	426.5	440.9	418.8	616.4	645.3	197.5	118.1	96.26	329.6	 4917	9999.9	9999.9	370.9	14.49	10.27	8.676	8.171	4.594	3.780	2.910	2.813	2.459	3.009	2.414	3.286	2.717	1.665	1.589	2.061	1.637	1.873	2.183	1.927	3.018	2.320	2.596
330.0	323.2	356.7	296.3	343.1	468.2	577.1	660.0	565.7	414.0	312.3	293.6	294.0	345.4	350.4	383.0	461.0	466.0	445.4	392.4	611.5	516.9	164.9	99.97	93.23	367.9	 4437	9999.9	9999.9	360.4	15.10	10.90	11.18	8.308	4.730	4.031	2.503	2.442	3.122	1.850	2.530	3.100	2.027	2.419	2.287	1.518	1.424	2.174	1.578	2.112	3.259	2.977
335.0	240.0	358.1	285.3	400.6	472.5	653.4	611.8	582.6	485.7	381.0	315.1	315.7	368.1	356.5	408.6	491.8	471.7	482.1	406.0	377.5	627.8	416.6	132.6	101.7	97.21	339.0	 5350	9999.9	9999.9	362.1	15.49	14.37	9.941	7.712	6.020	3.714	4.678	3.743	2.093	3.026	2.140	2.753	1.917	2.318	1.880	2.624	2.350	2.068	2.576	3.502	3.618
340.0	226.3	364.6	315.5	326.8	526.5	622.7	679.3	688.3	469.7	373.2	317.0	334.4	368.2	365.0	441.9	455.7	523.0	502.6	420.5	347.5	351.6	623.0	331.1	126.8	106.2	96.61	400.3	 4164	9999.9	9999.9	398.2	24.85	13.35	8.837	7.914	5.167	3.488	4.295	2.966	3.089	3.001	1.846	2.405	2.522	1.589	1.965	2.082	2.423	3.033	2.810	3.287
345.0	153.1	243.7	334.4	328.1	376.9	602.0	665.2	686.6	555.9	424.8	354.7	374.3	377.9	416.9	434.3	523.8	552.2	495.9	469.5	383.4	324.6	368.5	579.2	229.5	134.0	107.7	108.2	327.7	 3643	9999.9	9999.9	406.7	20.27	13.59	9.289	4.887	4.951	4.878	3.384	2.803	2.367	2.055	2.459	2.318	2.818	1.774	1.893	2.285	2.848	2.917	2.441
350.0	144.9	227.9	340.8	273.2	449.1	667.7	621.1	637.5	553.2	452.3	419.9	395.0	381.1	433.2	472.3	520.6	538.6	550.6	482.2	419.3	336.9	307.8	452.5	536.3	237.4	152.1	123.6	110.6	301.3	 3475	9999.9	9999.9	418.0	19.08	13.52	7.952	7.922	5.731	4.819	4.182	3.453	1.666	2.485	1.859	2.429	1.645	3.071	2.012	2.476	2.134	2.562
355.0	253.3	219.6	283.3	309.5	457.4	624.8	687.2	689.4	546.8	488.8	446.7	418.2	450.4	462.6	481.3	513.8	539.4	543.2	525.7	468.2	382.7	323.5	330.9	505.4	495.3	220.6	146.6	133.8	113.2	289.0	 3222	9999.9	9999.9	421.6	18.70	11.95	8.629	8.573	5.666	4.158	3.671	2.129	2.734	2.542	2.571	2.095	2.038	1.981	2.028	2.750	3.886
360.0	208.2	273.4	310.3	367.2	350.7	558.6	667.3	662.6	618.4	553.1	491.5	486.6	526.1	531.2	545.6	582.9	579.7	569.3	548.1	476.6	426.3	382.6	351.4	378.9	553.5	453.2	234.6	174.9	128.6	117.6	277.4	 4368	9999.9	9999.9	383.5	16.79	10.33	9.635	6.994	6.501	4.741	3.115	2.654	2.427	2.570	2.623	1.564	1.773	2.969	2.267	2.784
365.0	231.7	253.7	265.3	371.0	399.7	580.8	620.0	643.2	665.0	581.6	564.1	514.2	576.7	550.8	592.7	571.5	657.1	594.1	588.0	516.2	464.4	443.5	414.2	383.8	430.5	599.8	407.0	229.6	181.7	131.0	107.6	344.4	 4002	9999.9	9999.9	420.1	17.66	12.10	9.371	8.018	7.816	3.476	3.631	3.354	4.143	1.896	2.462	2.831	2.843	2.577	3.300
370.0	179.2	251.6	255.5	346.4	459.4	579.8	627.9	616.1	574.6	573.7	586.6	582.5	592.5	596.3	611.5	554.3	586.9	634.8	577.2	536.6	515.8	493.7	438.2	427.0	411.5	471.8	598.8	355.7	232.2	174.4	128.7	112.4	315.1	 3648	9999.9	9999.9	373.3	20.78	11.39	10.94	8.828	5.043	3.831	3.750	2.346	2.098	1.973	2.094	3.822	3.427	3.360
375.0	172.2	260.0	231.9	433.5	467.3	461.2	603.1	657.6	663.0	655.9	607.1	622.4	642.2	607.8	597.2	632.8	675.7	614.5	606.9	545.6	527.8	493.4	492.4	476.7	454.7	422.5	540.3	588.6	333.7	224.4	178.7	129.6	111.5	294.4	 3631	9999.9	9999.9	462.6	17.09	16.34	12.19	7.096	3.974	4.336	2.781	3.331	2.336	1.858	3.405	2.684	2.651
380.0	171.1	229.1	295.4	421.6	425.4	461.4	589.9	662.7	668.4	665.4	699.2	623.3	684.6	627.0	634.5	665.0	642.1	624.5	639.2	589.5	571.3	557.3	537.3	517.3	494.4	488.2	472.7	575.8	516.1	317.6	217.4	163.1	129.7	103.7	290.8	 3469	9999.9	9999.9	457.3	23.14	16.00	6.980	6.967	5.934	4.719	3.893	3.020	2.107	3.211	3.491	3.396
385.0	176.0	256.3	255.4	320.3	398.9	524.5	665.3	708.1	643.4	642.7	672.3	664.5	637.8	694.2	638.7	721.2	653.0	668.4	653.1	620.0	558.3	584.9	583.9	558.4	549.3	512.9	491.7	477.3	594.3	468.1	293.2	212.2	157.1	120.8	106.4	287.0	 3164	9999.9	9999.9	482.4	22.80	9.991	7.294	7.606	4.585	4.177	3.093	3.621	3.663	4.063	3.496
390.0	186.4	215.1	231.8	384.5	378.7	496.9	594.4	681.4	722.8	698.4	699.8	696.2	640.5	665.0	661.1	710.8	686.7	634.9	679.8	622.0	577.9	596.7	581.4	562.2	557.4	561.8	534.5	495.1	504.8	593.8	411.8	273.8	205.0	158.1	122.1	101.6	260.2	 3889	9999.9	9999.9	423.2	15.71	10.73	7.468	5.281	3.698	3.724	2.577	3.588	3.201	3.972
395.0	215.5	306.6	299.8	459.7	491.4	544.3	588.5	631.4	666.0	794.8	683.7	717.7	665.3	666.2	696.7	712.3	737.7	635.7	655.6	642.7	603.9	609.3	616.8	602.1	614.4	583.2	559.8	550.4	506.3	521.3	566.5	367.1	262.0	218.6	164.7	118.4	103.0	304.6	 2719	9999.9	9999.9	385.4	14.51	10.51	7.386	4.747	3.698	4.533	3.631	2.578	3.088
400.0	140.2	225.7	260.5	428.9	409.7	516.5	693.6	680.8	691.7	720.5	705.4	776.2	680.4	674.9	759.4	735.0	720.0	703.9	653.5	661.0	623.4	636.3	624.9	616.2	608.0	623.3	584.9	581.8	529.0	505.3	543.4	520.5	368.0	260.4	215.6	167.3	118.9	96.35	229.0	 3473	9999.9	 9010	312.6	14.36	9.436	7.237	4.190	3.897	4.658	3.766	3.649
405.0	239.9	263.4	345.2	327.9	470.4	650.1	705.8	697.4	726.8	717.3	748.4	743.3	737.9	714.8	738.7	766.4	734.0	705.4	674.8	625.2	619.4	624.0	648.1	646.2	627.0	636.5	642.5	619.4	571.4	520.8	498.8	541.7	497.6	323.5	256.6	201.2	144.5	107.4	86.74	273.6	 3480	9999.9	 8005	317.4	13.76	9.766	5.441	6.076	7.053	4.643	3.830
410.0	213.5	258.7	352.2	373.5	478.6	565.1	636.3	713.0	729.1	776.9	801.5	739.0	721.5	742.8	695.6	733.2	720.8	673.3	671.8	640.5	611.9	606.9	635.2	631.1	626.5	640.6	651.4	616.0	603.1	554.1	516.0	495.2	550.0	445.3	312.7	250.2	174.4	127.6	95.47	89.25	267.0	 2504	9999.9	 9358	271.8	15.08	8.668	5.216	6.277	5.111	4.175
415.0	239.1	348.4	359.9	387.7	464.4	521.1	618.5	674.3	691.8	723.3	815.2	794.7	703.8	716.5	716.0	781.3	708.7	700.6	660.5	653.4	623.0	626.1	630.8	614.9	634.2	624.7	643.3	617.1	598.7	580.2	537.5	511.0	519.2	555.0	402.4	293.8	208.0	163.0	116.0	89.51	79.10	200.7	 2369	9999.9	 7610	294.7	11.31	9.614	9.273	6.778	5.365
420.0	236.9	269.8	377.2	365.4	470.9	599.2	624.6	622.2	781.3	701.8	798.7	733.4	760.0	732.5	739.2	717.8	694.8	655.5	651.8	651.6	617.2	600.5	611.3	646.0	639.1	653.6	649.5	620.4	601.6	601.2	554.6	517.7	476.9	508.7	509.3	353.3	235.9	176.9	144.8	104.7	81.67	65.78	187.0	 2407	9999.9	 7750	228.6	11.20	12.59	8.935	5.418
425.0	211.6	274.4	347.6	456.6	439.8	620.5	639.5	686.2	700.6	706.5	743.4	713.8	731.9	750.4	746.1	748.6	674.1	687.0	664.8	611.0	610.4	584.8	618.3	600.2	624.1	625.1	634.4	627.9	610.1	565.9	561.9	524.8	483.0	463.5	501.5	442.7	280.5	215.0	161.8	122.2	92.81	66.56	56.94	192.3	 2433	9999.9	 6291	190.0	16.25	10.18	6.898
430.0	101.8	265.7	409.5	391.8	431.1	547.6	609.0	598.6	714.2	699.3	773.9	724.5	743.4	733.9	743.6	712.8	704.4	690.9	690.8	589.3	570.7	564.8	588.6	588.7	587.5	621.4	616.2	607.5	595.8	585.4	555.1	524.2	497.3	457.4	452.0	477.6	356.6	239.5	174.7	145.5	107.4	83.47	62.78	53.66	183.2	 2228	9999.9	 5658	274.8	13.66	8.000
435.0	169.6	235.3	331.5	360.1	439.5	543.9	629.3	594.7	679.6	702.0	756.0	715.8	729.8	728.2	768.1	713.9	734.5	659.9	649.6	584.9	554.9	544.7	572.0	587.5	561.2	597.6	606.2	589.9	583.1	581.9	549.5	515.2	522.8	461.8	453.7	430.9	400.4	292.2	204.9	163.9	134.7	96.52	77.68	57.60	52.74	171.8	 2021	9999.9	9999.9	216.5	9.657
440.0	163.0	221.6	303.8	341.9	429.3	510.7	548.5	617.8	657.7	688.1	737.8	707.6	705.4	725.1	744.1	710.1	708.0	662.9	607.3	553.2	544.8	514.4	546.1	562.2	557.7	588.1	546.3	571.3	576.1	554.6	544.2	536.1	512.8	475.7	445.3	404.7	386.8	363.8	251.0	178.8	150.0	114.7	87.46	75.56	57.93	53.30	157.2	 2045	9999.9	 7171	154.3
445.0	149.2	221.1	259.2	345.2	405.4	452.5	574.6	521.2	606.5	688.3	731.3	726.5	714.5	707.8	708.5	710.1	680.5	656.8	586.1	557.0	524.4	509.9	512.0	525.6	556.2	540.6	551.3	549.5	547.5	530.3	546.6	509.8	498.3	480.1	436.6	406.0	344.2	347.9	302.2	213.6	161.0	132.6	101.4	83.76	64.74	58.32	50.09	160.4	 3060	9999.9	 5041
450.0	183.3	217.2	344.7	309.6	415.3	437.2	524.2	554.6	668.9	693.6	650.5	739.2	720.8	698.8	729.6	687.3	619.0	608.9	577.1	539.1	506.2	503.7	479.0	486.6	489.8	519.2	510.9	504.6	519.3	520.4	516.3	498.4	483.5	457.8	437.5	404.1	333.9	307.4	322.0	259.9	179.6	145.4	112.0	91.67	84.59	67.24	49.50	50.95	227.1	 2142	9999.9
455.0	187.9	195.1	286.6	298.7	428.5	409.7	450.7	519.0	574.7	674.9	663.0	721.2	691.0	659.9	666.0	636.1	603.9	540.6	542.6	503.7	478.5	465.3	462.3	462.0	461.4	481.1	480.3	485.4	481.0	490.9	468.1	487.3	459.4	446.1	437.9	393.0	332.1	304.4	280.0	284.4	216.8	153.4	135.0	109.6	90.68	76.32	60.71	48.75	51.82	164.7	 2485
460.0	160.0	250.4	309.3	231.3	397.3	389.1	509.8	499.2	524.2	609.4	643.9	608.4	662.9	678.7	654.8	604.8	569.0	551.3	519.5	457.3	449.5	433.9	427.3	436.3	437.5	447.3	449.8	474.9	466.4	455.0	445.5	432.9	444.0	434.0	400.9	362.9	328.1	288.4	253.9	255.3	251.7	185.8	143.2	118.4	98.61	88.84	70.08	52.02	46.51	42.06	183.2
465.0	157.1	151.0	181.0	276.8	246.1	364.6	423.7	446.0	482.7	517.5	584.2	618.8	582.4	620.1	590.7	585.3	543.3	542.5	457.5	458.1	408.0	405.8	404.4	408.0	391.7	422.4	396.7	437.3	418.6	413.4	396.7	408.5	409.7	407.5	393.0	357.0	314.7	276.8	249.9	226.4	239.5	213.0	158.6	125.7	105.4	87.66	76.33	60.89	51.07	42.78	43.08
470.0	193.6	188.9	215.2	247.6	268.0	308.7	405.7	394.0	452.1	527.3	562.5	566.8	587.6	565.1	571.7	580.6	534.3	516.0	450.4	404.3	397.2	367.7	362.7	378.3	373.1	376.6	379.7	372.5	390.4	382.3	381.6	393.9	370.9	372.7	358.9	345.9	304.3	269.7	249.2	209.5	209.3	223.8	184.3	134.3	116.3	92.06	85.36	67.50	55.21	48.03	31.77
475.0	164.8	198.2	155.9	213.1	233.9	306.3	358.0	364.2	451.8	474.7	531.7	499.2	549.8	531.8	529.0	497.0	513.6	446.5	407.7	378.3	356.3	330.2	332.2	344.9	342.8	345.1	342.5	343.6	350.5	361.8	357.4	350.2	348.7	350.8	333.5	331.4	289.2	263.3	239.6	209.5	188.4	183.2	197.5	154.5	120.9	104.0	87.02	68.13	60.92	46.93	38.34
480.0	103.4	170.4	122.5	173.1	265.9	266.9	338.3	351.6	403.5	437.9	477.3	490.4	500.2	517.4	477.3	504.3	471.3	415.9	382.5	359.5	315.9	315.9	341.0	305.7	318.0	304.4	306.5	330.9	322.8	319.6	326.3	322.4	329.2	321.2	308.7	295.2	268.9	244.8	223.7	198.5	185.0	166.1	169.7	171.1	128.8	105.8	83.07	72.61	58.46	47.70	40.78
485.0	133.7	185.6	168.9	237.0	213.1	278.1	334.2	334.5	355.6	392.6	449.2	464.8	467.9	467.7	480.4	465.2	431.4	411.7	362.0	341.5	303.7	294.8	293.1	268.8	288.2	295.7	302.8	287.1	303.6	304.0	312.0	304.3	288.3	304.8	294.6	278.7	258.3	235.5	207.7	191.8	178.9	161.2	153.2	158.5	147.4	112.5	87.68	79.22	64.73	55.48	46.19
490.0	104.8	104.8	159.2	183.0	221.8	227.4	316.3	340.5	317.1	355.8	414.0	433.3	433.4	437.1	452.2	439.7	409.6	389.3	368.8	320.4	296.4	259.7	286.8	263.9	273.6	263.8	289.4	259.8	281.4	270.9	289.3	284.3	272.1	291.6	280.4	256.8	239.1	219.3	194.7	177.6	173.0	159.0	139.0	133.1	150.3	127.1	90.23	75.98	69.14	56.93	49.98
495.0	119.8	108.1	162.2	156.3	161.1	244.9	268.1	277.4	342.6	366.2	368.3	387.0	416.7	396.1	391.4	427.7	405.4	377.1	311.6	301.3	266.4	260.4	260.3	220.1	246.1	257.1	231.8	247.9	240.7	264.7	253.0	257.0	244.9	261.6	253.1	254.3	231.6	204.5	181.5	182.4	166.6	153.1	131.7	127.3	128.7	132.3	103.2	80.15	70.95	59.24	52.75
500.0	99.57	101.5	117.2	184.7	160.3	229.9	278.1	258.7	261.2	323.0	367.1	367.7	404.4	401.6	396.1	395.6	374.6	343.8	304.3	274.1	251.6	229.6	234.1	226.8	242.1	234.9	237.2	224.8	239.3	229.3	229.1	236.3	233.7	242.6	239.6	227.3	204.5	192.4	186.2	171.0	156.9	143.0	131.8	124.8	114.1	119.7	118.5	89.57	68.28	60.08	52.67
505.0	27.56	108.6	127.1	148.9	165.7	165.4	291.0	237.8	263.5	290.2	323.6	351.7	340.1	345.0	340.7	365.6	338.5	331.3	279.2	270.2	244.8	220.2	223.5	218.0	196.9	199.8	212.6	197.4	190.6	205.0	231.8	206.7	217.0	218.5	217.0	208.4	195.5	179.2	166.9	149.3	145.2	138.9	125.5	108.2	106.9	104.0	105.1	100.3	71.71	64.51	51.94
510.0	82.83	108.2	85.11	139.1	138.3	152.7	228.5	230.1	305.5	291.0	304.9	310.5	352.7	320.6	360.3	327.5	325.1	295.2	270.7	233.7	219.2	214.4	198.1	190.2	188.2	174.5	190.5	182.1	177.6	182.3	189.6	197.9	201.2	195.4	192.4	184.5	166.9	159.5	152.0	140.3	139.7	128.6	114.1	111.5	101.6	90.17	85.54	99.18	85.92	62.25	50.87
515.0	145.1	117.1	53.98	121.7	135.6	173.2	187.5	211.1	232.4	271.5	250.5	259.1	322.1	281.1	327.1	306.5	291.6	255.8	250.4	218.7	193.3	182.9	179.8	176.3	177.7	171.1	168.7	163.3	160.7	170.4	177.5	158.7	169.6	177.1	156.6	162.9	152.8	135.9	145.1	128.6	127.6	112.8	112.1	99.24	98.21	84.89	86.64	81.82	86.85	70.20	54.33
520.0	93.97	78.20	118.9	147.2	145.8	171.4	218.0	188.9	219.2	212.9	200.2	251.4	252.6	285.9	298.4	259.3	250.6	238.2	211.0	192.4	174.3	167.7	168.6	161.8	159.5	146.1	154.6	155.7	149.4	144.7	166.0	150.5	151.2	160.3	148.8	142.2	137.1	135.3	125.7	122.8	115.4	104.7	99.36	96.30	87.98	82.91	76.61	71.06	77.68	74.94	58.78
525.0	58.83	80.58	77.91	121.0	125.6	126.1	164.9	190.8	188.8	192.0	194.4	202.4	244.2	237.4	266.9	277.3	230.7	215.7	191.0	182.9	166.5	145.0	147.6	140.4	138.4	141.2	135.5	134.4	134.0	134.1	139.0	129.4	144.0	144.3	145.7	135.8	128.7	121.1	114.5	107.4	104.0	95.05	89.21	86.49	80.05	76.20	66.41	66.10	66.84	72.69	64.66
530.0	55.32	47.67	50.97	52.75	96.86	101.2	151.2	138.4	192.4	194.2	208.7	203.6	223.2	239.0	240.0	250.0	210.0	194.0	184.8	161.9	145.5	140.9	138.5	125.8	123.8	125.0	120.1	121.2	125.3	122.0	124.7	117.0	117.9	124.6	123.9	126.1	105.7	102.9	103.7	94.04	93.09	81.49	77.10	79.08	75.21	68.80	63.24	58.93	52.18	58.88	63.19
535.0	63.21	50.33	111.3	66.72	59.88	112.9	144.1	170.5	168.9	181.4	195.2	151.7	214.0	183.5	227.1	197.2	194.4	180.4	149.1	155.1	127.7	129.0	126.5	125.0	117.1	110.1	115.2	109.9	108.8	114.1	108.1	104.1	110.5	116.6	113.9	114.1	99.06	93.37	95.92	86.45	83.75	76.85	77.08	72.19	65.00	61.11	60.23	56.66	50.93	49.32	54.63
540.0	59.13	29.73	79.06	130.2	103.6	64.55	105.2	123.6	155.2	165.2	156.8	159.6	186.4	177.1	190.8	184.7	184.5	170.5	159.1	135.5	120.8	105.9	113.2	106.5	104.1	102.3	98.31	93.34	98.57	101.4	98.19	96.19	97.29	96.63	100.3	102.3	90.11	84.41	83.01	79.30	69.34	73.75	72.91	66.53	60.25	56.17	53.02	50.31	47.63	48.73	44.61
545.0	63.00	51.16	56.46	58.04	71.08	94.71	127.9	127.8	159.0	121.4	156.8	151.5	153.4	138.8	196.3	217.3	166.2	140.1	137.3	120.1	105.0	97.65	89.07	102.2	101.2	83.10	91.20	89.55	88.67	86.11	88.98	79.75	87.90	82.75	87.87	84.95	79.80	79.82	78.52	70.88	66.22	65.32	57.72	60.34	53.67	53.46	50.78	47.62	47.39	42.62	36.00
550.0	37.60	45.11	69.96	59.37	75.42	69.68	101.4	103.2	96.07	110.6	112.4	143.5	151.7	137.2	188.0	234.7	174.8	118.6	120.3	108.1	92.22	90.32	85.57	91.71	87.52	80.28	81.53	74.95	77.11	80.43	78.68	79.78	79.30	82.23	79.64	76.66	74.50	72.96	69.38	65.53	60.02	59.71	54.40	55.11	52.21	46.97	45.33	43.71	42.31	40.58	34.36
