Sample:	'SLABO1-5-5-320
File name:	3P10.FD3
Run Date:	16:33:29, 08/24/2022
Operator:	Administrator
Comment:	'

Instrument
Model:	F-7000 FL Spectrophotometer
Serial Number:	2354-007
ROM Version:	5J14000 06

Instrument Parameters
Measurement type:	3-D Scan
Data mode:	Fluorescence
EX  Start WL:	200.0 nm
EX  End WL:	450.0 nm
EX Sampling Interval:	5.0 nm
EM  Start WL:	280.0 nm
EM  End WL:	550.0 nm
EM Sampling Interval:	5.0 nm
Scan speed:	12000 nm/min
EX Slit:	5.0 nm
EM Slit:	5.0 nm
PMT Voltage:	700 V
Response:	Auto 
Corrected spectra:	Off
Shutter control:	On
Contour interval:	25.000

Peak integration
Integration method:	Rectangular
Sensitivity:	1
Threshold:	1.000

Peaks
No.	ApexEX/EM(nm)	Height(Data)
1	205.0/305.0	920.1
2	205.0/450.0	319.9
3	205.0/485.0	252.8
4	205.0/520.0	132.6
5	210.0/510.0	212.5
6	210.0/525.0	134.6
7	215.0/465.0	394.7
8	215.0/485.0	270.7
9	215.0/530.0	151.7
10	225.0/335.0	 1258
11	225.0/360.0	 1103
12	225.0/385.0	931.7
13	225.0/400.0	919.4
14	225.0/500.0	300.2
15	230.0/310.0	 1033
16	230.0/340.0	 1222
17	230.0/505.0	308.5
18	230.0/515.0	274.1
19	230.0/540.0	152.0
20	240.0/405.0	925.9
21	240.0/420.0	874.1
22	240.0/540.0	204.8
23	245.0/395.0	934.3
24	245.0/425.0	878.4
25	245.0/435.0	842.5
26	250.0/400.0	892.1
27	250.0/410.0	886.4
28	250.0/420.0	867.5
29	250.0/485.0	500.5
30	255.0/445.0	809.4
31	260.0/415.0	933.3
32	260.0/460.0	772.4
33	265.0/450.0	882.1
34	275.0/305.0	 1063
35	275.0/370.0	 1111
36	275.0/395.0	 1062
37	275.0/405.0	 1041
38	275.0/420.0	 1034
39	275.0/445.0	935.9
40	280.0/310.0	 1210
41	280.0/355.0	 1187
42	280.0/380.0	 1110
43	285.0/315.0	 1207
44	285.0/390.0	 1044
45	300.0/335.0	701.6
46	305.0/340.0	613.7
47	305.0/405.0	777.5
48	310.0/345.0	583.7
49	310.0/415.0	769.8
50	315.0/350.0	567.8
51	315.0/405.0	777.6
52	320.0/360.0	590.2
53	325.0/365.0	657.3
54	325.0/410.0	784.3
55	330.0/370.0	679.2
56	330.0/420.0	772.6
57	335.0/380.0	658.0
58	340.0/290.0	5.167
59	340.0/385.0	656.6
60	345.0/390.0	660.6
61	350.0/395.0	648.8
62	355.0/405.0	617.4
63	360.0/295.0	5.589
64	360.0/410.0	628.9
65	365.0/300.0	6.082
66	365.0/415.0	620.7
67	370.0/425.0	582.4
68	375.0/300.0	5.662
69	390.0/310.0	5.847
70	400.0/315.0	4.909
71	405.0/320.0	4.914
72	410.0/475.0	230.2
73	420.0/320.0	4.515
74	420.0/490.0	177.0
75	425.0/495.0	162.6
76	430.0/505.0	130.2
77	440.0/325.0	5.651
78	440.0/355.0	5.886
79	440.0/515.0	99.28
80	445.0/350.0	7.230

Data Points
	200.0	205.0	210.0	215.0	220.0	225.0	230.0	235.0	240.0	245.0	250.0	255.0	260.0	265.0	270.0	275.0	280.0	285.0	290.0	295.0	300.0	305.0	310.0	315.0	320.0	325.0	330.0	335.0	340.0	345.0	350.0	355.0	360.0	365.0	370.0	375.0	380.0	385.0	390.0	395.0	400.0	405.0	410.0	415.0	420.0	425.0	430.0	435.0	440.0	445.0	450.0
280.0	160.8	79.78	63.64	125.3	73.43	70.52	29.10	13.20	15.32	32.61	64.74	82.44	55.12	18.80	17.19	710.6	 4323	 1871	59.27	8.965	6.778	7.573	5.449	4.521	3.037	3.456	2.817	2.946	2.555	3.695	3.614	2.663	2.401	3.124	2.570	2.206	2.513	1.593	2.141	1.562	1.733	2.605	2.214	1.453	1.607	1.948	1.739	1.153	1.606	1.382	0.632
285.0	365.4	265.1	189.0	298.0	329.8	307.6	154.9	80.26	50.76	99.56	121.2	134.1	206.8	136.9	84.40	115.3	 1733	9999.9	 6494	422.2	12.41	9.085	11.37	7.210	6.446	4.562	3.720	4.084	4.365	3.078	4.494	4.101	2.775	3.676	3.545	3.498	2.565	2.577	2.200	2.387	2.937	2.681	2.042	2.155	1.803	1.533	1.268	1.662	1.207	1.983	1.631
290.0	565.3	411.0	367.3	516.7	579.6	499.0	351.4	185.1	103.1	133.8	133.2	191.7	224.8	416.1	251.9	176.5	247.8	 4015	9999.9	9999.9	513.3	16.11	13.86	10.49	8.766	4.692	5.053	4.072	5.167	3.336	3.431	4.063	2.865	3.658	3.254	3.871	3.850	2.595	2.574	4.082	2.041	2.187	2.340	2.371	2.003	2.052	2.369	2.864	3.109	2.514	2.968
295.0	936.4	628.4	622.8	686.7	800.5	889.6	538.2	334.0	163.7	201.4	219.6	245.7	266.3	430.7	610.5	413.6	296.5	445.4	 6237	9999.9	9999.9	627.0	18.35	15.57	13.78	11.03	8.707	5.748	4.123	5.608	4.465	5.259	5.589	3.201	3.024	3.499	3.051	3.520	3.241	3.082	3.739	3.238	2.823	2.555	3.370	3.122	2.884	3.720	4.577	4.130	3.347
300.0	955.4	705.9	702.4	786.6	946.7	965.5	745.2	442.7	244.4	195.1	233.3	261.3	333.8	402.1	825.2	829.4	477.9	343.4	543.3	 7565	9999.9	9999.9	672.7	21.64	16.55	12.01	10.90	7.801	5.057	6.766	5.545	2.828	3.641	6.082	4.184	5.662	4.303	3.050	3.345	3.210	3.855	3.341	4.239	3.294	3.573	3.990	2.303	2.837	4.172	5.060	3.869
305.0	882.4	920.1	679.1	889.5	 1019	 1034	902.5	575.6	320.3	233.6	219.5	301.5	357.5	488.7	596.9	 1063	922.0	461.1	255.4	605.8	 7906	9999.9	9999.9	723.0	26.00	17.48	15.14	12.15	7.614	6.452	6.721	6.312	5.406	4.508	2.814	3.723	4.348	4.539	4.030	3.685	3.630	3.529	4.242	3.557	3.564	3.297	4.399	4.640	4.671	5.434	4.798
310.0	812.3	740.8	625.8	839.5	940.6	 1033	 1033	607.9	373.9	284.6	280.3	327.7	430.1	552.7	629.1	833.4	 1210	807.4	341.2	197.4	588.1	 8358	9999.9	9999.9	952.3	28.61	21.22	16.16	11.60	9.904	6.241	8.408	6.058	5.997	6.224	3.421	4.707	3.676	5.847	3.991	4.078	4.183	4.276	3.512	4.213	3.295	4.618	4.515	5.439	5.820	6.047
315.0	802.4	723.0	585.5	824.4	966.0	 1062	887.6	611.5	393.4	301.1	299.8	369.0	444.0	559.9	698.3	817.6	950.5	 1207	543.8	229.9	146.0	613.0	9999.9	9999.9	9999.9	645.1	33.75	23.52	16.58	12.47	8.561	8.786	5.947	6.910	5.050	4.642	4.148	3.636	4.430	3.830	4.909	4.594	3.620	3.880	3.931	3.177	3.580	3.634	5.445	5.119	5.223
320.0	811.7	622.7	740.4	720.7	882.1	 1072	979.1	686.5	444.6	280.7	305.3	356.4	474.9	597.2	764.9	932.8	915.1	 1019	991.9	388.0	158.4	135.0	695.5	9999.9	9999.9	9999.9	635.4	33.94	17.76	17.11	15.50	10.17	7.982	8.204	6.682	6.502	5.044	4.163	4.445	4.585	3.823	4.914	3.372	2.575	4.515	2.753	4.677	4.217	5.204	5.493	5.030
325.0	614.6	521.2	543.6	692.7	876.5	 1066	 1019	753.5	475.2	325.6	326.0	394.9	473.3	607.1	783.8	945.7	976.8	873.9	901.5	784.1	254.0	132.1	125.6	701.5	 9665	9999.9	9999.9	684.1	29.37	23.69	18.92	15.41	10.78	9.604	6.616	7.684	6.138	6.222	6.214	4.854	4.497	4.031	4.516	3.300	4.384	3.478	4.419	4.223	5.651	4.773	5.239
330.0	485.4	555.5	510.5	600.0	949.8	 1157	 1132	847.1	564.5	384.7	384.0	428.1	526.4	641.3	852.3	995.6	 1066	929.1	745.5	795.1	574.6	190.6	119.5	133.2	674.4	 9383	9999.9	9999.9	618.0	39.79	28.47	19.63	15.53	12.69	11.05	9.524	5.706	6.285	4.076	5.044	4.519	3.338	3.822	3.436	4.073	3.451	4.058	3.401	5.519	4.831	5.618
335.0	479.5	513.5	578.5	585.5	 1012	 1258	 1137	904.5	593.2	401.1	414.8	461.8	521.2	680.4	887.2	 1103	 1109	 1036	783.6	607.2	701.6	432.3	155.2	121.7	132.1	664.6	 9949	9999.9	9999.9	660.8	43.50	31.12	20.63	18.18	10.33	10.39	6.884	6.279	4.854	4.625	4.267	4.359	3.018	4.440	3.864	3.501	3.095	4.479	4.034	5.065	5.813
340.0	426.2	512.7	567.7	658.3	993.7	 1214	 1222	984.4	580.9	423.8	445.9	492.4	605.0	732.4	943.9	 1098	 1157	 1019	830.5	610.8	451.1	613.7	335.9	156.8	112.6	130.2	697.7	 8741	9999.9	9999.9	746.2	41.79	33.81	23.79	15.99	11.07	8.866	7.405	4.576	5.284	4.578	5.219	4.593	3.576	4.129	3.660	3.987	3.921	5.612	5.870	5.824
345.0	451.0	489.8	480.4	698.8	988.1	 1238	 1208	920.5	673.3	499.7	444.4	508.1	618.0	738.1	912.9	 1094	 1177	 1080	874.7	609.1	409.9	419.3	583.7	271.1	152.4	120.3	145.9	627.5	 7864	9999.9	9999.9	809.6	47.99	37.95	21.12	19.71	10.75	10.01	5.813	6.371	5.789	5.284	3.851	4.385	2.853	4.511	3.786	4.267	5.038	5.391	5.443
350.0	393.7	406.0	475.9	675.6	950.1	 1111	 1207	939.6	642.7	575.0	520.6	540.2	644.4	784.8	932.7	 1109	 1171	 1083	907.6	670.0	453.4	354.6	473.0	567.8	240.7	156.8	138.8	147.8	576.0	 8410	9999.9	9999.9	895.2	57.29	31.06	29.95	17.83	14.01	7.993	6.378	6.520	4.898	4.043	4.689	3.669	4.850	3.791	3.394	4.991	7.230	6.033
355.0	407.7	415.9	469.9	710.6	987.4	 1068	 1056	847.9	687.4	580.6	587.6	609.3	697.7	841.5	960.5	 1101	 1187	 1115	914.6	723.6	498.2	405.6	348.0	524.8	530.7	245.9	179.9	147.2	142.9	622.0	 8138	9999.9	9999.9	947.9	43.46	34.91	23.41	18.75	11.30	8.308	7.382	6.485	5.411	3.710	4.157	3.949	3.859	4.205	5.886	4.922	5.336
360.0	295.6	367.1	535.1	617.0	747.6	 1103	 1034	887.2	760.4	639.9	611.3	645.1	707.5	815.3	952.9	 1087	 1154	 1114	974.5	731.8	542.4	460.6	395.7	413.4	590.2	490.0	260.3	195.8	168.2	155.9	603.0	 8507	9999.9	9999.9	817.6	51.62	35.16	21.40	14.87	13.49	7.440	7.405	6.691	5.666	4.425	3.857	4.494	4.855	5.358	4.717	5.272
365.0	252.7	376.9	452.3	581.7	788.4	 1003	995.1	806.3	759.7	731.2	664.3	711.9	778.4	923.6	 1023	 1066	 1155	 1054	957.1	768.4	589.8	518.9	454.2	445.7	471.7	657.3	452.0	261.8	211.9	150.1	151.4	626.0	 8334	9999.9	9999.9	975.5	50.40	29.64	20.44	16.45	10.06	7.621	6.022	6.552	4.916	4.124	4.656	3.975	4.955	5.636	6.553
370.0	294.4	313.1	469.0	606.7	781.5	907.6	903.9	848.2	735.8	792.2	732.3	724.2	796.1	876.4	 1023	 1111	 1063	 1057	923.2	782.4	661.0	571.3	533.5	499.0	483.4	540.5	679.2	421.6	277.3	212.2	157.8	153.9	617.0	 9278	9999.9	9999.9	865.6	43.45	28.64	24.79	13.10	9.422	9.056	6.550	4.980	5.195	4.909	4.561	4.184	6.237	5.721
375.0	292.5	398.8	453.4	582.1	613.6	934.3	912.8	846.9	841.1	831.8	771.0	791.0	829.1	905.3	 1022	 1045	 1079	 1072	909.0	785.4	702.5	617.8	582.5	573.4	549.0	517.4	605.1	636.7	395.3	273.5	198.5	147.9	147.3	663.3	 7797	9999.9	9999.9	 1004	40.31	32.21	19.28	15.25	12.08	8.154	5.916	5.446	4.965	4.939	4.392	5.671	5.581
380.0	222.9	366.4	389.3	610.5	656.4	830.7	807.1	819.1	744.5	762.7	773.8	828.2	824.4	914.8	946.8	 1038	 1110	 1014	918.0	790.9	706.2	652.2	661.3	614.7	602.0	559.5	545.5	658.0	578.1	337.0	262.3	199.7	144.3	149.1	574.2	 9693	9999.9	9999.9	824.7	44.46	29.45	19.78	12.92	11.69	8.239	6.882	6.146	5.222	4.942	7.305	5.125
385.0	272.7	390.6	414.8	601.8	690.6	931.7	848.3	823.8	831.6	847.1	812.5	827.8	809.5	887.4	993.8	 1029	 1061	 1005	893.4	810.0	698.9	678.7	676.8	664.5	652.7	624.0	589.3	580.6	656.6	518.6	334.0	258.7	183.2	148.1	145.8	685.0	 7308	9999.9	9999.9	953.0	41.41	28.73	17.89	12.80	8.908	6.573	7.267	4.567	5.971	5.029	5.182
390.0	324.6	443.6	409.9	552.5	694.2	890.7	901.0	864.7	823.5	892.4	835.0	784.8	820.1	882.8	959.5	 1036	 1020	 1044	921.2	818.0	733.4	714.4	727.1	694.8	700.5	666.1	631.0	624.6	587.0	660.6	470.1	306.5	253.1	187.4	153.6	149.6	536.7	 6595	9999.9	9999.9	818.0	38.40	24.77	19.08	12.73	10.60	7.731	6.942	5.772	5.410	6.153
395.0	420.0	362.1	424.4	508.8	695.9	838.1	896.3	857.6	855.8	934.3	831.6	809.9	865.6	903.3	982.7	 1062	 1012	983.4	914.4	845.9	780.7	750.5	720.3	735.5	715.8	708.4	683.3	664.6	586.0	600.7	648.8	427.4	312.8	259.9	194.5	146.7	128.1	493.1	 6039	9999.9	9999.9	863.0	34.46	24.73	15.83	14.01	8.886	7.335	7.096	7.214	6.617
400.0	288.0	349.8	429.4	528.2	532.6	919.4	918.8	841.2	845.7	888.4	892.1	887.5	882.6	887.1	 1018	 1012	 1040	945.4	913.8	810.9	760.7	769.7	743.3	770.0	734.5	751.2	707.6	716.9	633.5	604.7	623.7	613.1	396.6	307.6	246.4	185.6	136.3	126.8	452.0	 5801	9999.9	9999.9	711.2	33.87	23.58	16.19	15.05	8.240	6.261	6.564	6.482
405.0	284.9	344.5	423.2	601.5	632.9	762.2	745.0	854.5	925.9	849.1	877.2	869.6	880.5	958.2	980.0	 1041	 1041	973.7	854.1	863.8	760.2	777.5	772.1	777.6	761.9	779.1	737.3	753.8	681.7	625.3	573.8	617.4	557.4	385.9	305.9	232.4	179.2	135.0	121.1	435.7	 5272	9999.9	9999.9	629.6	32.08	24.74	16.92	11.38	8.460	9.461	5.811
410.0	282.5	444.6	436.6	453.8	671.8	786.0	708.9	764.5	844.0	861.6	886.4	877.6	889.5	929.3	967.5	 1026	 1014	949.6	892.5	797.9	772.1	775.5	755.6	772.7	764.5	784.3	755.0	739.9	701.4	659.7	588.5	578.4	628.9	522.1	357.2	287.2	215.2	162.1	123.8	108.0	395.1	 5656	9999.9	9999.9	621.6	37.61	20.90	14.82	11.14	9.078	7.382
415.0	249.6	383.2	417.3	630.4	636.9	664.7	699.9	748.8	811.5	822.7	852.8	867.6	933.3	902.8	959.8	 1004	987.1	932.7	868.5	787.1	765.0	758.7	769.8	753.9	773.4	779.6	760.6	751.2	706.5	685.2	630.5	577.4	588.1	620.7	449.7	327.0	255.4	186.3	140.3	111.7	99.37	413.5	 5337	9999.9	9999.9	672.2	30.92	18.16	15.69	11.69	10.41
420.0	194.8	297.0	356.7	545.2	575.6	601.6	769.4	805.8	874.1	840.8	867.5	858.8	815.0	911.4	995.1	 1034	980.3	899.4	811.8	791.1	728.8	747.6	752.9	754.9	737.6	761.7	772.6	738.9	715.7	683.5	652.6	607.0	578.2	583.4	571.0	385.2	283.1	228.6	177.1	130.7	93.47	94.60	390.5	 5017	9999.9	9999.9	581.0	27.82	18.12	15.14	9.893
425.0	261.9	332.6	345.0	452.8	596.7	676.6	719.8	763.4	835.8	878.4	853.5	841.1	890.7	928.8	975.8	990.4	962.4	887.8	828.6	776.2	733.9	699.4	716.8	727.7	708.9	744.5	748.8	732.0	734.0	705.1	665.9	631.9	579.6	548.3	582.4	503.6	329.5	252.5	208.0	153.7	104.4	83.90	85.36	363.0	 4774	9999.9	9999.9	535.7	26.45	16.36	14.66
430.0	239.5	353.3	396.7	447.2	559.6	551.6	740.9	762.7	818.6	806.5	830.5	807.5	850.5	902.7	903.6	957.8	908.2	842.2	823.6	773.7	709.8	689.4	681.5	702.6	722.9	741.5	737.6	725.0	719.1	679.1	655.1	621.9	583.0	545.8	532.3	543.0	426.5	279.1	222.4	179.9	132.4	103.4	79.05	79.22	344.9	 4813	9999.9	9999.9	468.2	25.60	18.02
435.0	214.6	258.4	380.8	426.3	558.9	638.9	671.8	771.1	754.8	842.5	836.3	815.0	809.3	886.3	917.4	948.9	925.0	831.2	788.6	709.8	658.5	654.1	658.2	682.8	692.5	696.0	712.1	710.3	685.7	682.1	641.9	612.0	587.1	561.4	520.0	492.5	482.4	346.0	252.7	204.7	155.9	116.2	92.12	74.42	76.52	344.8	 4460	9999.9	9999.9	446.7	25.55
440.0	243.4	253.9	385.9	397.3	479.9	615.5	662.5	727.4	746.8	793.1	816.9	775.3	863.1	868.3	895.5	912.3	873.2	816.2	747.9	710.2	642.2	638.6	638.7	649.1	649.1	675.3	684.4	672.6	676.9	664.0	645.6	616.2	593.3	584.3	524.1	466.0	439.5	426.1	298.5	226.5	170.3	134.8	110.0	88.74	71.18	76.45	325.1	 4698	9999.9	9999.9	416.0
445.0	200.4	291.3	236.5	338.7	413.6	498.7	665.9	679.7	671.6	747.4	798.6	809.4	798.4	863.7	853.3	935.9	901.5	795.0	723.1	680.5	631.8	614.7	598.6	596.5	605.7	651.7	624.3	656.6	630.0	638.3	626.0	611.1	596.9	572.6	532.3	453.4	417.3	413.3	354.1	249.4	189.2	158.5	123.4	92.33	77.80	66.59	71.38	339.1	 4483	9999.9	9999.9
450.0	151.9	319.9	251.8	366.3	411.3	514.1	523.2	605.9	659.4	694.9	769.5	777.3	755.1	882.1	828.5	878.5	797.0	778.4	693.1	616.9	578.0	572.3	562.7	583.5	598.3	591.8	606.9	621.3	624.8	595.9	600.5	584.8	564.5	557.0	509.1	466.9	400.5	370.9	375.2	297.5	211.0	169.7	147.5	118.9	95.17	80.71	63.95	70.80	322.1	 4442	9999.9
455.0	203.5	310.8	246.2	374.5	450.3	484.8	501.2	558.0	690.8	716.2	696.9	755.5	706.6	785.5	837.3	843.5	809.3	702.1	652.2	601.6	570.7	535.1	536.6	559.2	541.8	561.2	569.8	587.6	575.2	575.2	571.5	556.8	536.0	534.4	503.8	460.4	411.2	350.5	328.0	338.0	258.2	195.7	156.0	129.5	107.6	93.37	75.04	62.35	68.02	318.4	 4779
460.0	219.5	241.4	343.1	331.6	398.8	408.7	522.6	627.1	635.2	643.6	723.1	672.8	772.4	725.8	780.8	743.8	783.2	670.6	625.1	550.5	498.4	514.0	507.4	506.6	503.5	517.1	526.6	543.2	535.7	535.9	519.3	518.8	519.6	508.9	476.7	439.1	393.7	347.0	308.8	313.2	294.1	221.2	172.0	147.8	122.7	103.7	84.03	69.52	56.97	64.95	335.0
465.0	197.3	190.2	250.2	394.7	350.2	427.4	526.6	537.8	559.2	602.4	628.5	650.0	685.6	706.8	747.0	707.0	742.0	644.0	614.3	508.5	486.7	477.6	472.9	469.9	477.7	476.4	497.4	492.8	488.7	489.9	480.6	488.6	489.1	469.8	453.1	428.9	381.9	336.3	306.9	269.7	273.3	261.4	192.5	154.5	128.0	111.4	88.93	75.02	62.98	51.61	56.98
470.0	136.4	233.7	249.4	284.5	235.9	379.9	463.0	498.1	579.3	552.0	632.2	629.5	666.7	668.8	708.9	674.4	686.5	606.8	528.7	504.2	443.2	442.0	433.7	423.7	433.7	450.4	448.6	459.1	448.2	458.4	460.0	444.2	460.0	447.9	439.2	408.1	370.2	322.3	284.7	258.9	242.1	249.6	214.2	164.0	137.4	122.3	101.7	80.73	63.11	56.89	46.84
475.0	234.4	223.2	206.3	252.4	264.4	385.3	441.1	448.3	505.1	499.6	560.8	581.8	625.5	640.8	609.4	612.9	613.2	526.8	476.6	438.9	458.9	425.0	386.6	397.9	401.2	409.1	409.6	401.5	405.9	412.3	414.6	414.9	425.4	412.0	417.1	376.2	341.1	318.2	272.2	245.2	226.4	222.6	230.2	183.7	138.1	122.6	100.9	84.79	68.76	60.55	46.01
480.0	155.8	161.3	217.7	246.0	334.2	303.4	416.4	394.2	495.7	473.9	468.1	524.7	527.2	587.1	593.3	629.3	554.2	505.8	478.4	415.2	383.8	355.4	364.8	379.0	355.0	367.1	367.0	363.6	388.6	389.5	374.0	388.9	379.7	368.7	378.1	357.3	326.4	285.9	263.0	239.2	217.2	190.7	199.9	191.1	153.2	127.1	104.9	86.49	77.53	65.06	51.45
485.0	118.7	252.8	222.7	270.7	220.6	341.2	356.7	386.3	399.0	448.1	500.5	478.5	519.9	558.8	548.5	554.8	526.6	486.2	451.6	405.8	371.6	352.6	329.0	336.7	340.5	335.3	352.8	349.5	355.1	354.4	349.2	347.8	350.4	363.3	350.7	338.1	300.6	271.8	257.2	237.5	206.8	195.5	172.6	178.4	173.1	138.1	107.8	94.36	77.05	71.34	54.64
490.0	140.6	170.2	140.6	237.4	234.7	294.5	350.7	328.0	394.7	461.2	465.9	482.5	495.3	505.3	531.0	510.4	477.2	433.5	431.8	371.1	338.0	330.5	321.2	320.3	303.4	306.0	326.2	322.1	316.8	318.9	329.7	323.8	333.1	330.3	331.1	309.7	284.0	266.3	243.7	225.7	206.1	186.9	165.7	162.1	177.0	151.3	115.3	90.81	80.28	70.95	60.07
495.0	181.3	176.3	166.4	183.5	207.5	240.9	352.6	340.6	384.7	388.9	461.2	430.5	476.9	490.7	505.6	485.3	494.3	445.2	386.8	336.2	324.1	304.0	301.0	278.1	297.1	295.9	291.2	274.6	292.5	302.9	305.2	308.8	318.4	306.5	305.4	284.7	267.8	255.9	235.4	214.1	195.9	178.0	165.0	150.6	159.1	162.6	124.5	99.85	81.98	69.38	61.54
500.0	119.5	157.4	125.9	159.7	242.2	300.2	264.2	295.5	316.2	313.1	385.7	411.6	428.7	429.1	468.9	444.8	437.1	397.0	340.9	310.1	273.3	277.2	276.5	265.3	273.7	265.8	268.2	263.6	274.4	272.9	281.2	269.7	280.2	284.5	284.9	262.6	239.7	231.0	212.2	203.7	172.6	170.9	159.8	150.1	129.0	143.8	128.9	108.8	82.65	69.57	64.07
505.0	105.4	129.5	155.6	128.9	230.4	245.9	308.5	271.9	312.1	319.6	357.2	362.4	385.5	403.1	471.6	409.3	405.7	364.6	330.3	295.5	261.8	248.0	235.0	233.9	230.7	237.8	230.4	234.0	238.0	246.9	238.1	247.6	257.9	261.3	257.5	246.3	228.4	211.2	198.8	187.1	171.3	155.8	152.4	138.3	125.5	123.5	130.2	121.1	86.59	71.52	60.61
510.0	119.3	189.0	212.5	132.8	132.6	207.2	226.7	254.8	272.7	298.3	328.4	341.0	396.8	381.3	415.2	414.9	386.4	340.4	288.1	268.6	242.3	231.8	219.3	210.0	233.4	222.4	200.6	217.1	223.1	219.7	223.5	231.0	223.6	236.7	235.4	221.3	209.1	190.0	181.3	176.5	158.3	146.1	139.5	126.8	119.0	106.9	98.94	118.3	92.05	77.81	61.74
515.0	80.03	100.9	101.5	142.4	142.7	221.1	274.1	232.0	272.6	270.6	257.7	329.8	326.1	355.3	369.2	386.5	349.8	306.0	262.3	236.0	219.4	215.4	201.8	199.0	183.7	203.4	197.4	194.5	196.7	186.3	198.7	203.2	197.5	213.6	198.1	203.6	191.4	175.1	163.0	153.7	145.2	141.1	132.5	126.1	109.6	108.1	93.43	96.53	99.28	84.37	64.55
520.0	56.60	132.6	103.9	119.5	172.0	174.2	209.1	232.3	243.3	228.8	250.9	243.5	306.4	335.4	321.1	324.0	319.0	300.8	248.8	227.4	207.0	202.7	193.8	180.7	180.3	184.8	185.1	183.1	163.4	189.0	187.6	178.5	168.4	197.8	172.5	186.2	176.6	160.9	147.4	144.6	132.2	123.8	121.2	113.9	106.5	96.97	86.66	83.67	90.67	89.45	65.26
525.0	58.63	120.7	134.6	110.4	130.8	153.2	174.2	188.3	186.8	245.6	247.8	234.6	294.9	304.2	312.5	313.2	300.0	264.5	257.6	206.0	200.6	181.2	180.9	170.0	160.2	159.4	161.8	160.8	156.7	151.5	153.9	167.4	166.1	161.5	163.2	165.3	144.7	151.2	127.8	126.1	120.3	118.3	108.5	101.3	102.1	84.81	87.31	74.69	72.34	81.27	70.81
530.0	93.40	110.0	125.2	151.7	110.9	142.3	171.6	167.8	173.2	209.7	221.2	221.9	271.0	259.9	258.6	276.5	268.7	243.5	200.8	192.1	169.5	151.9	160.0	143.7	151.6	135.2	137.8	142.4	135.8	138.5	137.1	155.3	142.8	140.5	151.1	141.8	131.8	131.9	121.5	115.6	103.9	107.5	96.13	90.40	87.20	81.59	80.98	72.66	69.21	70.72	71.77
535.0	46.32	116.2	77.63	147.4	129.1	108.4	138.2	176.4	157.5	169.9	203.8	188.3	223.0	245.1	239.4	240.0	215.0	207.4	189.4	177.8	150.9	153.6	145.1	143.3	139.6	121.3	129.6	136.9	119.7	127.1	120.8	129.2	129.4	132.6	132.8	125.8	129.0	120.8	107.1	102.2	98.43	90.04	89.91	81.96	80.93	76.19	74.05	67.63	62.44	59.44	63.53
540.0	88.57	53.76	88.06	109.1	104.7	111.6	152.0	128.8	204.8	188.2	163.3	179.0	180.6	212.1	245.0	224.4	216.9	186.9	185.3	158.2	141.7	129.5	130.1	120.9	118.3	110.1	120.3	111.9	115.5	114.6	113.4	107.1	116.0	115.5	121.1	109.7	104.9	105.6	97.26	92.92	89.65	80.79	80.43	75.91	69.64	74.56	69.28	61.56	55.77	58.09	52.69
545.0	45.74	57.10	82.94	100.3	90.85	110.5	129.7	136.3	125.3	144.9	149.9	167.7	159.1	190.9	203.1	263.8	221.2	181.6	154.9	139.6	126.4	119.4	109.5	103.1	103.9	102.3	103.4	99.70	102.5	99.49	93.68	109.7	101.1	110.5	108.5	101.2	99.83	90.94	88.11	84.75	79.85	76.35	73.90	66.80	69.07	60.30	61.03	57.08	47.76	51.49	47.51
550.0	72.54	55.22	72.49	93.58	58.35	117.3	107.0	114.1	125.6	134.6	151.4	158.0	169.5	165.8	188.9	371.3	235.8	160.2	149.4	122.3	110.5	119.8	96.51	95.93	93.94	91.23	95.14	91.59	93.43	88.60	95.71	91.70	94.99	99.06	90.94	90.83	84.96	83.62	75.77	74.75	72.03	72.76	71.35	60.60	62.14	54.57	54.98	55.49	48.65	43.90	44.18
