Sample:	'SLABO1-5-5-320
File name:	3P12.FD3
Run Date:	16:42:13, 08/24/2022
Operator:	Administrator
Comment:	'

Instrument
Model:	F-7000 FL Spectrophotometer
Serial Number:	2354-007
ROM Version:	5J14000 06

Instrument Parameters
Measurement type:	3-D Scan
Data mode:	Fluorescence
EX  Start WL:	200.0 nm
EX  End WL:	450.0 nm
EX Sampling Interval:	5.0 nm
EM  Start WL:	280.0 nm
EM  End WL:	550.0 nm
EM Sampling Interval:	5.0 nm
Scan speed:	12000 nm/min
EX Slit:	5.0 nm
EM Slit:	5.0 nm
PMT Voltage:	700 V
Response:	Auto 
Corrected spectra:	Off
Shutter control:	On
Contour interval:	25.000

Peak integration
Integration method:	Rectangular
Sensitivity:	1
Threshold:	1.000

Peaks
No.	ApexEX/EM(nm)	Height(Data)
1	205.0/520.0	214.9
2	210.0/355.0	401.1
3	210.0/495.0	209.6
4	220.0/305.0	 1119
5	225.0/300.0	 1111
6	225.0/325.0	843.8
7	225.0/340.0	853.2
8	225.0/510.0	257.5
9	230.0/335.0	882.6
10	230.0/370.0	746.9
11	230.0/395.0	739.8
12	230.0/545.0	161.8
13	235.0/355.0	736.1
14	235.0/420.0	787.7
15	240.0/410.0	865.7
16	240.0/435.0	787.7
17	240.0/455.0	680.3
18	245.0/390.0	778.4
19	245.0/400.0	808.3
20	250.0/300.0	375.6
21	250.0/310.0	363.6
22	250.0/385.0	744.5
23	250.0/395.0	776.4
24	250.0/415.0	812.7
25	250.0/430.0	833.0
26	255.0/410.0	795.0
27	255.0/420.0	797.5
28	260.0/430.0	826.4
29	265.0/290.0	437.3
30	265.0/400.0	808.0
31	265.0/435.0	827.9
32	270.0/390.0	773.0
33	270.0/420.0	869.3
34	275.0/305.0	850.5
35	275.0/330.0	493.2
36	275.0/385.0	735.0
37	275.0/400.0	810.4
38	275.0/430.0	876.0
39	280.0/310.0	959.8
40	280.0/350.0	562.2
41	285.0/315.0	951.7
42	285.0/345.0	543.6
43	290.0/320.0	799.8
44	290.0/380.0	654.7
45	295.0/325.0	660.5
46	300.0/335.0	617.7
47	305.0/340.0	617.7
48	310.0/345.0	584.6
49	310.0/405.0	713.3
50	315.0/350.0	554.5
51	315.0/410.0	707.3
52	320.0/360.0	607.4
53	320.0/400.0	683.5
54	325.0/365.0	625.7
55	325.0/420.0	706.7
56	330.0/370.0	652.2
57	335.0/375.0	634.1
58	340.0/385.0	634.6
59	345.0/390.0	647.2
60	350.0/395.0	622.1
61	355.0/400.0	594.4
62	360.0/410.0	617.9
63	365.0/310.0	8.543
64	365.0/415.0	592.4
65	370.0/425.0	548.5
66	375.0/285.0	4.947
67	375.0/305.0	7.010
68	390.0/300.0	5.679
69	390.0/315.0	6.330
70	405.0/310.0	6.541
71	410.0/295.0	4.957
72	410.0/320.0	5.606
73	410.0/475.0	230.1
74	415.0/325.0	4.760
75	415.0/480.0	208.9
76	420.0/490.0	185.1
77	425.0/310.0	5.422
78	430.0/340.0	4.858
79	435.0/510.0	126.1
80	440.0/295.0	5.789
81	440.0/515.0	110.0

Data Points
	200.0	205.0	210.0	215.0	220.0	225.0	230.0	235.0	240.0	245.0	250.0	255.0	260.0	265.0	270.0	275.0	280.0	285.0	290.0	295.0	300.0	305.0	310.0	315.0	320.0	325.0	330.0	335.0	340.0	345.0	350.0	355.0	360.0	365.0	370.0	375.0	380.0	385.0	390.0	395.0	400.0	405.0	410.0	415.0	420.0	425.0	430.0	435.0	440.0	445.0	450.0
280.0	211.3	128.7	137.4	159.6	176.4	84.55	50.73	16.33	28.69	45.96	66.98	87.71	78.77	36.03	33.89	 1230	 7114	 2984	85.93	14.66	11.42	8.465	7.093	7.115	5.257	5.192	4.898	3.719	5.014	3.966	3.884	3.983	3.347	3.725	3.988	2.091	3.612	2.160	1.747	2.596	2.963	1.391	1.312	0.990	1.422	1.072	1.520	0.477	1.441	1.562	2.170
285.0	674.2	364.5	307.2	440.4	418.5	488.3	218.0	76.05	73.94	114.0	210.8	202.2	255.8	153.0	89.46	145.5	 2690	9999.9	9999.9	584.8	16.32	15.13	15.67	11.73	8.686	8.269	4.302	5.475	3.732	4.089	4.348	3.905	4.090	4.079	3.308	4.947	3.499	2.551	3.855	3.258	3.192	2.819	1.889	2.401	1.663	2.457	2.118	3.351	2.556	2.422	2.785
290.0	 1149	800.3	651.8	774.6	853.6	713.0	469.1	181.4	136.6	267.4	278.2	303.0	305.7	437.3	254.1	141.0	264.1	 6290	9999.9	9999.9	750.4	22.16	18.07	14.49	13.29	7.537	7.869	7.523	5.521	4.867	5.108	4.901	4.633	5.222	4.138	4.823	2.727	3.234	4.298	3.865	3.501	2.888	2.485	2.821	2.563	3.495	2.466	4.126	3.694	2.865	3.690
295.0	 1527	950.5	 1001	831.5	 1080	902.0	567.5	289.0	178.5	247.3	338.4	329.1	281.2	430.3	560.9	283.8	190.7	521.7	 9001	9999.9	9999.9	930.1	25.81	22.88	18.00	14.77	9.281	6.018	5.670	6.825	4.727	3.807	4.719	4.891	4.420	3.395	4.151	4.927	4.356	4.544	5.211	3.631	4.957	2.743	3.728	3.224	3.988	4.437	5.789	5.662	4.097
300.0	 1725	 1135	774.6	 1013	 1051	 1111	753.8	393.7	270.7	319.7	375.6	323.4	337.9	335.8	632.2	669.9	298.5	253.6	682.9	9999.9	9999.9	9999.9	944.4	31.93	23.87	21.30	14.81	11.11	10.70	6.987	7.327	4.433	4.200	4.553	5.196	5.002	3.733	3.301	5.679	4.628	4.919	5.312	3.445	3.669	3.926	3.650	3.707	4.780	4.795	4.602	4.094
305.0	 1623	 1005	855.8	869.4	 1119	998.2	677.0	427.5	299.9	325.0	324.8	332.8	355.9	367.3	448.9	850.5	652.2	307.2	198.5	731.3	9999.9	9999.9	9999.9	 1049	37.91	29.68	22.07	15.00	11.34	9.968	9.688	6.893	6.638	7.211	4.939	7.010	6.140	4.768	5.069	4.960	5.890	4.137	3.923	4.152	4.802	4.758	4.791	4.896	4.641	5.942	4.270
310.0	 1227	895.2	823.6	934.8	971.8	 1047	695.8	492.2	379.3	297.3	363.6	326.1	334.4	393.0	422.1	523.9	959.8	596.4	222.3	164.8	719.8	9999.9	9999.9	9999.9	 1034	40.60	30.25	21.06	13.84	10.95	9.859	8.159	6.729	8.543	4.508	5.033	6.615	6.352	3.948	5.230	6.274	6.541	5.238	4.847	3.670	5.422	4.646	4.427	4.275	5.346	4.837
315.0	988.5	790.0	764.4	767.8	728.6	843.4	660.7	484.1	357.4	325.9	299.8	363.7	377.0	383.6	430.4	438.2	578.4	951.7	386.2	146.1	141.9	717.3	9999.9	9999.9	9999.9	953.5	46.82	30.23	20.77	19.10	13.60	9.002	8.885	7.175	6.668	6.304	5.668	4.244	6.330	5.865	5.480	5.620	4.646	3.638	4.241	3.873	4.446	4.930	4.133	5.355	3.583
320.0	862.6	807.0	549.5	635.2	775.6	819.1	663.9	459.5	384.4	306.5	333.8	350.6	331.4	343.3	429.9	453.9	464.0	643.5	799.8	254.7	124.7	127.7	712.1	9999.9	9999.9	9999.9	857.8	44.09	31.60	28.42	18.86	14.00	11.81	9.630	8.174	8.277	6.314	4.805	5.104	4.811	5.567	4.280	5.606	3.998	4.265	4.386	4.454	4.307	4.156	4.541	4.430
325.0	571.2	633.4	500.2	576.4	705.6	843.8	799.8	546.6	414.3	314.0	287.2	342.6	337.9	400.4	432.0	468.7	493.5	504.3	642.6	660.5	204.9	113.4	141.5	706.3	9999.9	9999.9	9999.9	914.6	44.83	35.53	26.65	18.46	12.24	12.14	11.39	7.535	5.873	5.504	4.269	5.118	5.557	5.166	3.198	4.760	3.763	3.548	3.622	4.709	3.834	5.174	3.903
330.0	510.1	560.3	553.2	501.3	668.2	732.7	708.7	688.3	487.6	354.2	304.4	315.1	344.1	411.1	454.9	493.2	476.3	483.1	399.2	623.5	517.0	177.6	115.6	133.2	718.2	9999.9	9999.9	9999.9	899.5	50.51	34.98	29.42	19.98	15.93	10.27	9.301	8.949	4.974	7.398	5.465	5.862	4.966	4.144	3.501	4.392	4.470	4.041	4.008	3.615	4.113	3.916
335.0	514.5	515.7	371.1	449.4	612.0	735.1	882.6	660.7	516.0	363.6	357.0	353.6	366.3	372.9	442.2	480.4	509.0	519.0	408.6	367.2	617.7	415.0	149.5	120.4	125.4	712.4	9999.9	9999.9	9999.9	888.9	51.69	37.53	26.21	19.78	17.52	10.93	7.636	8.727	6.611	5.247	5.158	5.151	5.724	4.750	5.609	4.076	3.374	3.311	3.911	4.010	3.995
340.0	439.9	409.6	395.2	478.0	600.0	853.2	838.0	736.9	571.8	411.7	365.7	331.8	337.6	417.3	460.2	472.6	506.6	527.6	408.9	361.2	371.0	617.7	323.7	147.1	123.9	137.1	711.4	9999.9	9999.9	9999.9	 1005	55.56	37.58	28.26	20.43	15.72	9.827	8.528	7.889	5.175	4.973	4.689	4.055	3.556	4.106	4.019	4.858	3.929	3.702	5.345	3.225
345.0	298.2	340.2	350.4	380.7	568.3	700.5	750.6	702.1	545.0	425.3	393.5	368.7	380.3	392.1	448.8	494.5	525.2	543.6	462.3	372.2	318.9	376.6	584.6	284.5	158.1	131.8	140.2	714.9	9999.9	9999.9	9999.9	 1074	58.73	40.85	29.38	20.36	14.42	10.35	8.400	5.705	5.684	5.297	4.170	3.873	4.493	3.983	4.752	3.392	3.585	2.887	4.600
350.0	406.1	240.7	303.4	336.4	540.5	700.1	748.6	725.6	541.0	468.1	436.3	434.4	418.9	439.2	506.4	528.2	562.2	531.9	482.0	418.4	336.6	328.8	451.9	554.5	241.3	168.1	150.0	153.0	724.3	9999.9	9999.9	9999.9	 1061	57.69	39.68	28.89	22.20	15.46	9.156	8.461	7.842	6.600	4.790	4.614	3.414	3.847	3.483	4.043	4.359	4.385	5.236
355.0	254.5	384.1	401.1	345.6	564.7	642.4	713.0	736.1	623.3	537.0	504.4	482.5	485.6	503.7	505.6	583.7	548.1	573.1	549.0	442.0	394.0	354.2	356.4	520.5	546.0	250.2	187.0	155.4	169.1	719.3	 9819	9999.9	9999.9	 1104	58.16	37.92	28.22	19.67	13.13	10.18	6.548	5.339	5.723	5.942	4.564	4.386	4.233	4.746	4.276	5.329	4.019
360.0	374.4	233.0	381.2	423.9	553.8	675.0	681.6	725.9	605.2	625.3	519.3	475.7	499.0	536.7	588.9	594.2	562.0	618.1	564.8	496.8	437.6	420.3	391.2	382.6	607.4	465.5	252.6	191.2	161.5	172.3	718.0	9999.9	9999.9	9999.9	 1016	53.65	39.45	25.06	19.13	12.89	8.855	8.432	6.925	5.952	4.166	3.769	3.329	3.263	3.997	4.187	3.897
365.0	253.9	250.5	357.5	393.9	482.6	584.9	699.8	685.2	618.8	598.6	582.7	560.9	525.7	580.4	599.6	585.9	637.4	618.4	567.5	517.1	505.3	464.4	436.3	398.4	453.5	625.7	437.4	257.2	204.5	173.2	167.7	724.8	 9874	9999.9	9999.9	 1097	53.90	39.73	24.26	19.89	12.40	9.482	6.240	6.138	6.948	5.211	5.033	4.009	4.210	4.435	3.471
370.0	308.5	233.1	330.3	497.1	424.3	598.9	746.9	746.2	609.4	679.5	643.2	603.7	586.3	654.6	617.5	630.4	669.9	634.7	606.9	561.3	543.6	512.9	483.1	482.8	450.1	517.9	652.2	402.5	272.1	201.7	160.4	162.6	713.5	 9998	9999.9	9999.9	 1046	50.05	32.91	22.89	17.69	13.03	10.49	6.401	5.924	5.115	4.308	4.844	4.220	3.578	4.436
375.0	253.4	274.7	436.0	457.8	409.4	589.8	629.6	714.8	683.8	661.2	659.9	680.9	642.4	661.5	648.3	707.5	692.3	633.4	617.2	578.5	576.9	552.7	559.6	516.8	491.1	473.8	577.5	634.1	376.6	264.0	196.3	152.7	143.5	724.0	 9402	9999.9	9999.9	 1131	50.42	31.99	21.83	16.31	12.13	8.428	7.478	6.141	4.301	3.906	5.347	5.442	4.500
380.0	273.8	365.3	438.7	419.0	485.4	658.7	615.7	713.6	727.6	743.3	694.1	671.3	677.3	663.3	704.1	685.3	737.9	614.2	654.7	616.1	571.7	587.0	587.1	551.0	564.8	527.9	512.7	628.7	563.4	352.2	257.2	192.3	146.2	149.8	683.0	 9143	9999.9	9999.9	 1016	42.43	31.58	20.14	16.82	11.70	7.124	7.552	6.300	5.367	5.248	4.650	5.388
385.0	380.4	294.4	412.3	547.9	545.5	574.2	691.7	727.4	731.4	740.5	744.5	699.1	708.9	679.9	698.2	735.0	730.8	698.4	635.2	648.7	636.2	610.6	607.9	587.9	598.0	576.6	540.1	532.8	634.6	524.8	318.1	249.8	190.1	147.0	151.2	661.2	 7803	9999.9	9999.9	980.7	42.30	29.27	20.02	14.58	11.24	7.792	6.275	4.997	4.328	4.686	5.445
390.0	266.5	380.3	334.4	482.9	477.1	645.2	640.6	737.9	708.8	778.4	679.4	698.9	703.3	722.9	773.0	693.7	748.2	730.1	664.4	670.8	625.0	637.0	626.8	643.5	641.1	598.4	585.9	545.3	549.1	647.2	451.1	298.9	238.8	199.3	147.5	152.0	572.7	 7214	9999.9	9999.9	962.9	39.78	25.70	18.89	13.37	11.53	7.430	6.582	6.631	5.553	6.070
395.0	194.3	329.7	425.7	447.2	477.7	598.0	739.8	688.6	743.6	748.6	776.4	724.2	771.1	716.5	761.2	768.6	753.6	742.1	711.9	659.8	649.4	659.9	638.4	653.6	666.2	628.5	618.3	594.4	549.7	576.7	622.1	415.4	311.8	251.3	190.2	151.7	144.3	533.9	 6856	9999.9	9999.9	926.2	36.84	26.51	18.09	12.44	10.59	8.654	6.383	5.504	5.555
400.0	233.6	328.0	431.9	405.5	482.5	711.3	678.6	752.1	745.9	808.3	751.2	752.9	792.2	808.0	770.2	810.4	765.2	770.8	700.1	688.7	642.9	675.4	679.0	677.4	683.5	649.3	667.9	623.3	603.3	555.0	581.3	594.4	400.7	293.1	248.0	196.4	143.6	134.7	508.0	 6799	9999.9	9999.9	806.8	37.58	22.55	15.93	11.89	8.160	7.525	5.911	6.016
405.0	230.4	326.2	385.4	484.2	508.9	637.2	729.5	763.5	776.9	780.1	781.5	773.2	730.2	781.1	777.5	785.8	767.2	773.0	721.6	716.2	674.1	695.6	713.3	697.2	660.3	685.2	683.1	665.5	622.2	556.5	530.2	593.5	546.1	379.7	314.7	237.4	178.6	131.5	118.3	499.3	 5839	9999.9	9999.9	725.4	31.96	21.35	15.91	13.18	9.186	6.157	6.027
410.0	212.5	296.9	390.6	461.5	546.7	706.4	708.3	671.7	865.7	789.7	773.2	795.0	768.3	815.1	807.0	819.8	792.8	752.7	729.1	688.4	653.4	663.7	678.8	707.3	675.8	695.4	693.1	675.5	652.8	602.8	559.9	548.5	617.9	503.5	343.1	279.5	212.6	163.6	124.0	115.9	429.5	 5626	9999.9	9999.9	697.3	29.56	23.38	14.81	12.29	8.860	6.778
415.0	267.6	323.6	367.1	492.6	572.2	653.1	684.2	761.9	750.1	785.7	812.7	750.9	749.9	781.4	842.9	821.2	783.5	781.8	738.5	684.0	683.1	682.6	673.4	683.2	686.0	698.9	694.9	692.6	653.3	624.8	586.6	555.4	562.3	592.4	434.8	313.1	256.5	195.1	149.8	104.6	105.2	411.2	 5320	9999.9	9999.9	680.4	30.28	18.11	14.31	8.830	8.765
420.0	236.4	302.5	358.3	417.6	618.3	617.1	735.1	787.7	736.2	755.5	790.6	797.5	770.7	776.5	869.3	838.8	794.1	749.6	703.8	707.5	680.8	655.4	661.7	680.0	681.5	706.7	691.4	674.1	678.1	636.2	614.2	556.8	537.2	564.0	545.1	375.3	281.1	227.8	168.6	128.7	93.48	97.20	394.3	 5184	9999.9	9999.9	573.7	28.91	19.13	11.81	10.23
425.0	276.0	290.5	475.4	515.1	580.5	627.2	653.0	746.9	757.3	772.2	775.0	753.8	748.8	815.4	811.0	830.2	813.2	758.9	708.4	690.8	654.4	641.8	656.1	651.9	686.5	684.5	689.2	683.0	679.5	655.9	620.8	603.6	549.3	523.2	548.5	480.6	333.8	253.5	193.7	149.7	114.2	84.06	88.35	374.2	 4808	9999.9	9999.9	525.1	27.00	16.89	12.69
430.0	273.2	286.2	432.3	453.5	527.3	636.5	683.0	737.5	728.3	797.6	833.0	807.6	826.4	781.8	830.6	876.0	795.3	762.0	693.7	646.8	643.6	649.9	632.2	638.5	648.0	670.2	670.5	672.5	653.3	636.8	626.0	604.4	546.2	525.0	520.7	524.0	411.1	292.5	218.3	171.7	133.6	101.1	80.82	83.94	350.4	 4535	9999.9	9999.9	460.2	23.39	18.27
435.0	238.4	306.4	395.5	455.4	452.6	593.9	709.4	720.0	787.7	751.0	809.2	802.2	767.4	827.9	795.9	845.9	797.7	735.5	686.3	648.1	618.7	602.9	627.4	618.7	638.7	641.5	653.1	639.2	652.6	646.8	615.0	597.2	577.8	546.3	491.9	476.6	465.2	344.6	243.5	194.8	153.0	123.0	92.68	74.22	75.81	331.2	 4455	9999.9	9999.9	455.1	27.13
440.0	265.5	268.0	313.3	386.7	426.6	577.0	627.1	673.3	739.3	705.3	794.3	770.0	801.8	796.6	819.6	858.5	748.7	710.0	654.1	660.3	602.1	591.6	597.0	609.3	616.1	627.1	606.5	648.2	630.3	623.7	612.7	594.6	561.8	533.6	498.9	440.0	439.4	399.6	283.6	213.2	173.7	135.3	110.7	85.67	69.29	78.47	326.9	 4316	9999.9	9999.9	415.6
445.0	257.3	275.8	332.4	377.8	489.2	479.8	584.8	655.1	657.9	713.2	785.3	726.0	743.0	779.5	788.1	803.1	757.6	708.0	652.5	604.5	584.8	574.0	578.0	565.7	584.6	597.8	608.4	604.5	617.1	589.8	590.5	582.8	551.2	534.0	506.6	444.8	391.3	401.0	356.6	241.1	188.3	151.8	127.0	103.9	80.17	66.20	73.56	317.4	 4594	9999.9	9999.9
450.0	150.6	332.7	263.8	439.2	415.0	504.1	531.7	576.1	648.6	644.6	718.2	719.9	762.5	765.0	773.8	791.5	733.1	701.3	639.7	582.7	566.5	554.3	554.5	554.8	559.3	557.6	560.5	590.6	577.7	575.7	554.5	543.3	538.8	515.8	493.1	441.9	389.0	352.3	356.6	293.6	211.3	172.8	146.1	117.6	99.15	75.35	67.15	71.35	333.4	 4250	9999.9
455.0	255.9	226.6	236.0	398.8	402.7	527.4	526.6	595.0	680.3	644.1	678.7	693.8	709.6	760.3	716.2	778.3	701.6	652.3	607.9	572.7	542.4	495.9	523.8	528.9	536.1	529.6	537.4	528.6	557.5	546.9	518.2	523.9	519.0	491.4	488.2	443.7	393.4	343.6	326.0	335.1	252.5	189.8	165.2	130.2	113.8	94.74	80.53	66.37	67.03	304.0	 4397
460.0	245.5	209.0	339.8	410.5	372.3	485.3	454.0	552.0	515.4	597.3	673.9	684.5	709.8	715.1	713.0	706.8	680.2	629.4	583.3	535.1	508.5	479.3	488.2	496.5	507.8	496.3	496.1	508.2	528.3	509.7	501.4	511.7	476.2	489.9	460.1	426.3	379.1	336.3	304.6	296.8	290.0	221.1	173.1	140.7	115.3	103.4	87.37	74.91	57.76	68.55	313.6
465.0	145.4	233.1	284.9	292.9	405.4	383.6	449.2	512.0	546.4	552.0	641.8	626.9	671.2	692.2	692.3	688.2	657.0	617.4	549.5	512.2	460.0	476.9	438.8	456.2	458.6	457.1	472.2	477.8	479.6	476.8	474.4	482.0	479.2	449.9	431.6	394.4	363.3	336.5	287.8	265.7	265.2	252.1	190.8	163.6	132.6	108.4	91.31	79.31	64.12	52.78	60.61
470.0	168.0	239.1	257.6	381.1	422.1	418.4	432.0	431.9	527.8	578.8	602.5	626.0	619.0	619.6	623.9	613.2	563.6	556.2	498.9	457.7	453.2	421.2	422.3	427.8	447.4	427.6	404.8	434.6	432.0	453.0	438.1	434.6	435.9	426.6	416.2	389.1	350.1	322.6	287.5	249.0	242.2	251.3	219.7	175.2	140.2	123.3	97.44	84.51	69.43	58.36	48.93
475.0	184.6	194.9	253.5	317.4	248.1	395.8	368.6	449.3	533.4	500.9	541.4	590.5	587.9	595.7	609.9	561.3	572.1	482.6	443.5	420.0	425.6	407.6	400.7	400.1	382.7	389.3	392.2	385.8	400.1	393.7	393.7	395.5	396.2	406.6	373.9	358.5	336.3	302.1	276.8	241.6	222.0	217.2	230.1	189.9	144.2	127.4	105.0	85.88	74.87	65.42	54.21
480.0	151.4	191.0	259.0	265.5	333.7	355.0	427.2	401.6	471.6	441.0	499.4	550.5	531.1	538.7	557.3	549.3	502.1	519.5	444.2	392.5	392.4	354.0	368.8	349.3	350.9	364.0	354.3	368.9	355.1	366.7	363.5	375.7	362.7	373.6	365.2	325.9	313.7	280.2	261.6	241.6	221.1	203.5	207.9	208.9	156.5	128.4	109.0	88.08	78.08	69.92	57.13
485.0	120.9	158.2	186.2	268.6	259.8	350.8	368.5	378.0	426.6	432.1	460.8	520.4	540.2	509.9	542.9	524.0	505.8	464.0	433.1	377.1	358.3	359.0	353.3	334.6	332.0	334.2	338.8	338.6	328.1	342.2	347.2	346.8	351.7	348.9	327.6	313.5	311.2	275.5	244.5	229.1	207.8	190.4	178.7	197.6	183.9	135.6	107.9	100.2	82.63	70.93	58.64
490.0	88.62	135.3	170.1	195.1	224.3	307.3	344.6	383.8	348.7	445.1	486.8	460.3	501.9	501.6	485.4	466.7	483.6	435.1	378.9	364.5	346.0	323.9	301.8	317.3	313.3	305.7	303.6	298.6	323.7	317.0	320.3	315.0	312.3	314.7	313.7	292.7	290.2	253.1	245.0	222.7	199.4	188.3	178.0	159.5	185.1	157.2	125.6	99.30	80.90	76.04	63.56
495.0	99.58	199.3	209.6	181.2	277.9	301.7	322.6	348.1	386.6	405.9	411.3	417.8	451.4	471.6	494.7	482.6	469.2	421.4	390.3	327.9	319.2	291.6	294.9	299.4	293.6	286.0	286.8	283.0	295.3	295.6	286.3	292.1	295.6	305.3	280.7	281.4	275.4	242.7	230.2	213.1	204.5	182.5	167.0	155.0	159.5	155.9	136.5	99.38	90.12	73.59	65.30
500.0	130.7	96.27	200.0	191.8	244.0	237.2	286.3	311.3	312.1	382.4	408.2	383.6	433.5	448.9	462.3	435.5	430.3	368.8	362.3	309.2	273.6	292.6	268.4	267.1	258.7	264.7	268.6	267.8	255.5	265.6	266.6	279.0	278.9	276.3	272.1	253.4	243.3	235.7	211.1	200.6	177.8	179.4	161.7	153.8	138.0	150.2	134.2	106.8	92.42	76.71	68.11
505.0	112.8	129.3	208.1	158.8	196.9	251.6	224.8	296.8	320.2	344.4	374.4	356.5	369.2	394.0	420.2	435.0	408.6	374.5	329.7	280.8	276.6	257.4	242.9	238.7	248.8	244.3	237.7	249.2	243.9	246.7	233.5	254.2	244.4	257.3	240.8	232.9	236.0	212.5	201.7	185.0	169.1	159.3	148.0	151.0	132.0	129.6	131.4	118.0	96.52	77.49	70.72
510.0	140.2	108.8	90.56	148.6	225.6	257.5	198.3	273.2	297.8	338.5	332.0	374.8	382.9	355.6	357.2	376.3	359.3	332.9	285.2	275.9	260.1	234.9	219.5	216.3	233.3	216.5	216.1	223.3	220.0	212.9	217.9	231.6	210.3	227.7	227.8	223.0	195.8	196.9	184.9	181.2	160.6	158.9	143.1	132.0	126.6	113.6	110.9	126.1	101.7	76.92	66.52
515.0	136.8	136.5	148.5	176.4	213.8	189.6	242.4	271.3	278.0	316.4	319.7	328.8	325.1	329.9	358.2	343.6	321.8	316.5	274.9	252.3	226.2	210.4	216.0	201.9	199.9	195.9	186.6	193.9	186.5	193.2	201.0	207.3	192.8	206.6	202.5	191.8	192.3	179.3	164.4	154.0	146.2	138.5	127.4	128.2	111.3	106.0	102.3	102.3	110.0	86.82	63.50
520.0	101.5	214.9	70.41	168.1	182.1	180.7	186.5	240.1	236.6	279.9	268.4	262.5	303.7	327.6	319.8	320.0	287.4	283.6	250.9	221.6	200.3	194.8	189.4	187.4	192.5	171.7	187.9	181.2	172.6	171.1	182.2	183.1	191.5	188.5	189.5	165.6	164.4	162.1	141.7	143.9	133.4	133.3	119.9	118.0	105.6	102.9	90.20	88.36	100.8	90.02	68.67
525.0	119.6	145.2	139.5	118.6	174.3	185.7	209.3	215.3	173.5	232.4	215.5	267.3	271.1	304.2	275.8	299.7	272.5	278.5	241.4	217.8	198.8	186.0	176.4	173.0	162.6	163.9	160.3	161.3	163.4	149.7	162.5	163.5	165.5	164.8	172.4	166.9	151.1	147.0	130.3	135.5	123.5	109.6	111.1	103.1	94.96	94.16	84.35	80.48	76.99	86.66	79.68
530.0	74.65	119.7	65.17	115.2	116.9	163.3	140.1	196.6	210.3	209.5	228.5	240.7	267.8	245.9	284.5	258.3	251.7	227.6	220.1	194.9	172.9	164.4	160.9	147.0	159.5	146.5	140.7	139.8	142.1	144.1	147.1	139.6	145.4	142.4	154.0	142.2	128.1	125.2	114.8	117.7	120.9	110.0	99.78	92.78	94.48	86.21	76.16	72.84	74.31	73.31	77.81
535.0	73.28	120.1	94.03	123.9	130.5	135.9	153.4	179.5	184.3	183.2	210.9	224.8	228.1	267.4	254.9	241.9	225.9	190.0	204.7	177.9	157.8	141.8	143.0	150.6	139.5	139.9	130.1	129.6	132.4	130.1	131.9	132.7	132.6	127.8	126.2	130.8	120.5	117.1	110.9	103.8	93.97	93.44	93.07	85.33	81.80	79.68	75.54	72.81	63.10	59.91	66.29
540.0	84.12	115.2	75.25	119.0	129.0	113.3	143.0	124.2	145.0	152.2	182.9	192.4	193.9	229.0	265.1	249.4	223.4	199.0	190.7	154.8	153.4	142.1	137.2	126.7	123.8	113.3	112.0	114.6	122.8	115.4	117.8	114.1	118.1	113.4	120.4	114.7	115.4	104.2	101.2	92.91	88.65	84.68	80.61	82.59	75.05	70.96	69.40	62.53	60.70	56.85	52.83
545.0	69.35	101.1	139.4	111.9	101.8	105.8	161.8	133.1	128.6	158.3	182.3	157.4	175.4	180.3	233.9	321.1	213.7	166.2	160.2	140.5	123.5	124.3	122.6	115.0	108.6	103.3	109.7	102.8	104.7	104.3	100.1	105.8	102.6	106.8	105.3	103.3	95.96	93.28	84.08	86.21	83.17	77.66	73.76	71.94	71.70	62.85	64.71	58.19	53.13	50.23	49.54
550.0	59.85	58.32	76.05	118.0	80.80	73.90	138.4	104.8	114.6	149.4	148.6	143.3	147.9	161.7	188.1	424.5	241.8	183.8	141.3	136.3	117.1	107.7	108.5	100.0	100.7	97.97	101.3	91.76	92.32	91.56	96.23	93.11	101.8	96.54	101.2	97.32	88.46	80.16	83.14	80.55	74.19	69.21	67.18	68.00	62.11	60.77	56.64	50.93	51.87	48.10	45.81
