Sample:	'SLABO1-5-5-320
File name:	3P2.FD3
Run Date:	15:59:32, 08/24/2022
Operator:	Administrator
Comment:	'

Instrument
Model:	F-7000 FL Spectrophotometer
Serial Number:	2354-007
ROM Version:	5J14000 06

Instrument Parameters
Measurement type:	3-D Scan
Data mode:	Fluorescence
EX  Start WL:	200.0 nm
EX  End WL:	450.0 nm
EX Sampling Interval:	5.0 nm
EM  Start WL:	280.0 nm
EM  End WL:	550.0 nm
EM Sampling Interval:	5.0 nm
Scan speed:	12000 nm/min
EX Slit:	5.0 nm
EM Slit:	5.0 nm
PMT Voltage:	700 V
Response:	Auto 
Corrected spectra:	Off
Shutter control:	On
Contour interval:	25.000

Peak integration
Integration method:	Rectangular
Sensitivity:	1
Threshold:	1.000

Peaks
No.	ApexEX/EM(nm)	Height(Data)
1	205.0/365.0	314.3
2	205.0/455.0	299.7
3	205.0/525.0	121.7
4	210.0/310.0	539.1
5	210.0/450.0	374.5
6	210.0/485.0	224.2
7	210.0/505.0	165.6
8	215.0/305.0	606.7
9	220.0/530.0	170.5
10	225.0/310.0	667.6
11	230.0/340.0	 1032
12	230.0/360.0	927.8
13	230.0/535.0	193.1
14	235.0/365.0	900.9
15	235.0/380.0	904.6
16	235.0/400.0	930.0
17	245.0/380.0	912.9
18	245.0/390.0	948.3
19	245.0/420.0	963.8
20	250.0/290.0	656.1
21	250.0/415.0	972.5
22	250.0/435.0	974.6
23	250.0/455.0	842.0
24	255.0/410.0	954.6
25	255.0/425.0	955.8
26	255.0/440.0	972.7
27	255.0/450.0	876.7
28	260.0/415.0	986.4
29	260.0/460.0	834.8
30	265.0/385.0	981.1
31	265.0/395.0	974.4
32	265.0/490.0	603.1
33	270.0/410.0	 1032
34	270.0/435.0	982.3
35	270.0/450.0	948.4
36	275.0/305.0	844.4
37	275.0/395.0	 1003
38	275.0/415.0	 1017
39	275.0/445.0	949.8
40	280.0/310.0	992.0
41	285.0/315.0	 1013
42	285.0/345.0	696.1
43	290.0/320.0	855.3
44	295.0/330.0	716.6
45	300.0/335.0	664.2
46	300.0/425.0	802.0
47	305.0/340.0	645.6
48	310.0/345.0	610.7
49	310.0/405.0	826.5
50	315.0/350.0	599.6
51	315.0/415.0	837.5
52	320.0/360.0	613.0
53	325.0/365.0	676.4
54	325.0/410.0	836.8
55	330.0/370.0	676.6
56	330.0/420.0	829.6
57	335.0/380.0	681.3
58	340.0/385.0	710.9
59	345.0/390.0	706.0
60	350.0/400.0	695.5
61	355.0/405.0	722.5
62	360.0/305.0	5.178
63	360.0/410.0	693.7
64	365.0/415.0	673.7
65	390.0/315.0	3.474
66	395.0/305.0	3.621
67	400.0/295.0	3.305
68	405.0/470.0	296.7
69	415.0/310.0	3.176
70	415.0/375.0	6.400
71	420.0/355.0	4.036
72	425.0/495.0	188.7
73	430.0/315.0	2.898
74	440.0/295.0	3.452
75	445.0/305.0	3.371
76	445.0/345.0	4.220

Data Points
	200.0	205.0	210.0	215.0	220.0	225.0	230.0	235.0	240.0	245.0	250.0	255.0	260.0	265.0	270.0	275.0	280.0	285.0	290.0	295.0	300.0	305.0	310.0	315.0	320.0	325.0	330.0	335.0	340.0	345.0	350.0	355.0	360.0	365.0	370.0	375.0	380.0	385.0	390.0	395.0	400.0	405.0	410.0	415.0	420.0	425.0	430.0	435.0	440.0	445.0	450.0
280.0	46.40	39.29	27.99	36.73	48.60	26.83	33.84	30.30	59.91	172.1	220.8	216.5	104.3	44.69	17.82	500.3	 3203	 1296	47.55	6.917	4.896	5.829	4.277	3.413	3.118	4.160	2.940	1.356	2.867	1.273	2.415	1.051	0.840	1.720	2.397	1.296	2.177	1.486	1.373	1.417	0.508	0.581	1.396	1.226	0.685	0.630	1.047	0.627	1.060	1.016	0.497
285.0	248.3	249.6	107.9	142.9	200.7	210.1	125.1	91.64	161.1	357.1	474.2	450.0	375.2	197.9	70.14	80.43	 1195	 8029	 4621	251.2	10.84	6.809	6.891	5.229	4.481	3.648	2.624	2.783	2.901	1.726	1.697	2.204	2.618	2.252	2.083	1.290	2.436	1.888	1.168	1.144	1.023	2.410	1.486	1.339	1.210	1.276	1.868	1.317	0.987	1.357	2.165
290.0	463.5	262.4	266.6	284.9	287.8	355.5	205.9	170.3	231.4	470.0	656.1	561.8	454.0	424.6	211.4	131.6	160.0	 2719	9999.9	 6978	362.4	9.779	10.14	6.874	4.342	2.081	4.186	3.807	4.065	1.816	3.377	2.817	1.831	2.322	2.403	2.166	1.534	1.536	2.546	1.753	1.567	1.759	1.804	1.480	1.715	1.692	1.912	1.842	2.767	1.621	1.997
295.0	552.0	446.3	315.3	433.7	495.7	508.8	320.5	218.5	283.7	517.7	645.3	570.7	406.0	415.0	545.8	251.9	161.9	286.0	 4034	9999.9	9999.9	423.0	15.53	9.124	9.090	6.841	5.413	3.901	2.729	2.624	2.936	2.825	3.157	2.900	3.593	1.984	2.514	1.576	3.083	2.432	3.305	2.148	1.606	2.164	2.108	2.187	2.011	2.117	3.452	1.994	3.152
300.0	704.4	522.6	373.9	514.8	546.6	553.2	534.3	303.7	334.1	414.5	562.5	480.2	383.2	318.6	595.0	665.6	323.4	214.7	374.5	 4768	9999.9	9999.9	437.4	16.32	14.94	9.303	6.826	3.700	4.757	3.123	3.824	2.545	2.548	3.436	3.009	2.946	2.965	1.868	2.885	3.544	2.800	2.905	2.019	2.149	2.214	2.036	2.206	2.579	2.205	3.128	2.518
305.0	564.7	561.2	514.3	606.7	556.5	555.5	521.2	355.1	292.7	379.2	456.0	412.7	366.0	358.1	433.0	844.4	665.8	291.4	199.5	397.7	 6805	9999.9	9999.9	497.0	22.12	14.40	12.14	7.058	6.244	4.595	3.314	2.303	5.178	2.899	2.193	1.752	2.956	2.522	2.556	3.621	3.142	2.054	1.825	2.461	1.590	1.720	1.602	2.389	2.697	3.371	2.914
310.0	713.9	493.3	539.1	512.5	492.3	667.6	549.2	427.5	343.2	312.9	351.5	362.9	357.9	390.2	401.8	546.4	992.0	586.4	258.4	150.2	509.0	 5076	9999.9	9999.9	774.8	17.70	13.80	9.253	11.68	5.663	5.201	3.538	3.069	4.074	3.520	2.580	2.760	2.038	2.892	2.693	1.836	2.879	2.153	3.176	2.893	2.378	2.467	2.692	2.523	2.366	3.102
315.0	615.4	477.3	467.5	467.5	549.8	561.0	526.2	427.2	314.9	297.2	335.1	303.0	339.1	363.6	423.4	493.3	635.4	 1013	425.5	173.8	143.9	390.5	 6146	9999.9	9999.9	445.7	16.67	16.67	12.90	8.333	5.848	4.442	4.595	5.406	3.930	3.856	2.861	1.987	3.474	2.316	2.104	1.413	2.874	2.031	2.322	2.537	2.898	2.465	2.806	2.680	2.507
320.0	407.9	499.5	381.7	423.7	545.2	649.3	625.9	480.4	304.2	296.0	286.5	292.6	347.4	408.1	470.1	545.4	540.2	731.6	855.3	309.4	147.0	125.8	452.6	 6059	9999.9	9999.9	391.7	18.70	14.39	11.15	10.27	4.154	3.770	4.454	4.175	3.141	3.221	3.042	3.057	3.528	2.838	2.445	2.458	3.317	2.662	2.065	1.893	2.643	3.477	3.308	3.929
325.0	417.4	517.8	450.0	465.9	529.4	700.0	843.0	734.7	398.0	307.6	298.5	329.8	384.4	428.5	491.3	565.5	580.0	555.7	729.7	693.3	254.1	132.7	123.8	446.8	 6149	9999.9	9999.9	442.8	25.07	13.88	13.19	6.536	6.071	5.889	5.248	3.110	2.953	3.214	2.812	2.577	2.912	2.584	2.429	3.295	2.172	2.298	2.470	2.680	3.378	2.288	4.394
330.0	346.6	391.4	425.8	460.5	626.3	771.7	963.0	799.2	472.3	354.2	326.7	345.0	367.3	427.8	547.7	590.6	580.6	595.8	518.8	716.6	601.9	207.1	137.4	123.1	461.6	 5347	9999.9	9999.9	420.6	18.76	17.95	10.21	8.674	7.297	6.489	4.238	4.842	3.256	2.327	2.696	2.072	2.131	1.937	2.560	2.258	2.513	3.021	2.969	3.372	3.939	3.778
335.0	316.4	347.3	287.1	362.3	548.7	742.0	912.2	831.4	587.5	405.3	344.4	327.7	375.7	460.8	517.8	609.8	638.3	616.8	499.2	481.0	664.2	468.3	180.9	129.5	120.8	415.3	 5568	9999.9	9999.9	416.0	25.48	17.25	10.64	10.57	7.369	4.678	4.391	4.314	2.519	2.727	2.825	3.085	1.541	2.895	2.911	2.199	2.251	2.324	3.645	3.710	3.938
340.0	255.8	263.2	444.4	481.2	652.2	793.0	 1032	880.0	642.9	474.8	354.4	368.0	412.4	475.7	532.6	627.8	653.4	634.9	552.9	439.9	455.8	645.6	358.8	173.0	130.4	126.8	429.1	 5148	9999.9	9999.9	493.3	20.31	15.47	12.42	10.74	5.751	4.263	3.403	3.035	2.238	2.540	3.047	2.496	3.056	2.549	2.354	2.320	2.947	3.322	3.653	3.509
345.0	243.4	255.9	293.1	390.4	606.7	750.5	991.6	914.5	721.6	503.3	418.0	430.9	443.4	523.2	558.6	674.8	684.8	696.1	602.9	542.8	411.9	468.8	610.7	312.7	172.8	135.7	129.1	403.9	 5665	9999.9	9999.9	482.7	20.51	17.05	15.26	8.978	5.881	3.915	4.093	2.916	2.183	3.392	2.058	3.674	2.304	1.312	2.411	3.963	3.611	4.220	3.161
350.0	209.8	317.9	369.6	399.8	546.7	752.3	898.6	893.1	723.1	582.7	491.6	517.9	543.2	567.6	598.5	699.5	708.6	659.7	635.6	578.3	454.8	405.3	522.1	599.6	291.1	190.5	145.2	140.7	443.5	 4492	9999.9	9999.9	477.4	22.91	19.18	10.48	10.16	4.580	4.803	4.455	3.892	2.671	2.602	3.168	1.837	2.618	3.022	3.773	2.990	3.084	4.051
355.0	272.5	202.7	259.6	383.2	598.5	666.5	893.7	892.4	737.4	681.2	599.8	557.5	594.2	642.1	664.0	675.2	752.5	752.6	673.1	621.4	541.1	461.2	427.8	582.7	576.1	276.5	206.2	164.1	144.6	371.1	 5016	9999.9	9999.9	511.5	29.08	15.46	11.60	7.502	5.737	4.341	3.587	3.473	2.525	3.466	4.036	2.486	2.878	3.141	2.654	2.860	2.319
360.0	201.8	221.6	315.6	439.9	517.2	610.5	927.8	862.4	799.0	659.6	661.4	645.5	694.0	725.5	737.6	765.2	764.9	773.7	704.2	651.0	569.5	510.1	463.6	450.2	613.0	507.9	295.4	220.8	178.6	143.8	409.7	 4362	9999.9	9999.9	488.0	21.60	20.71	11.12	7.879	5.643	5.585	3.455	2.716	3.194	3.226	2.130	2.357	2.715	2.813	2.852	3.283
365.0	153.1	314.3	264.1	332.7	479.6	656.6	797.1	900.9	818.7	789.9	675.4	689.8	762.8	813.9	808.2	820.9	806.7	793.7	739.0	678.5	645.7	574.8	503.9	494.8	503.8	676.4	479.8	298.8	245.1	177.9	144.6	357.2	 4034	9999.9	9999.9	478.1	26.44	16.10	11.38	7.833	5.806	5.048	3.321	4.172	2.887	2.447	2.407	2.285	2.667	3.551	3.067
370.0	126.0	250.9	315.1	423.0	503.6	701.7	820.9	887.8	832.3	832.8	773.0	778.0	831.9	845.0	865.6	883.4	830.0	803.8	801.7	723.4	655.4	617.9	603.1	552.0	522.5	579.0	676.6	446.8	298.4	229.1	173.9	134.5	335.6	 4724	9999.9	9999.9	548.1	21.02	15.17	11.89	7.989	6.329	3.883	5.447	2.412	3.481	2.578	2.070	2.402	3.191	3.681
375.0	223.3	236.9	332.3	447.3	485.2	691.9	810.2	781.9	872.2	879.5	786.9	753.3	784.7	880.4	887.2	904.4	882.0	843.8	814.6	750.2	740.6	712.9	644.9	624.0	585.7	555.4	638.4	676.1	414.1	307.0	220.4	163.3	134.9	375.3	 4916	9999.9	9999.9	509.4	20.25	16.11	11.89	7.288	4.712	6.400	3.004	2.791	3.078	3.031	3.126	3.067	2.735
380.0	213.1	240.2	371.7	356.7	494.1	609.0	778.7	904.6	865.2	912.9	804.5	834.7	844.0	937.8	935.7	922.2	876.1	829.3	840.5	788.2	749.1	737.4	715.5	680.5	645.6	623.0	562.6	681.3	622.3	371.3	283.1	222.5	155.7	132.8	389.2	 4014	9999.9	9999.9	458.8	23.56	14.19	9.245	6.523	5.349	3.929	3.867	3.174	3.641	3.138	3.586	3.193
385.0	215.9	249.8	255.8	407.8	559.8	685.9	848.6	885.6	872.0	891.8	852.2	855.8	839.5	981.1	937.3	933.6	915.8	879.3	816.6	797.3	763.9	752.2	756.0	714.8	680.4	654.2	622.2	618.4	710.9	562.5	375.4	286.5	215.9	153.2	138.2	333.5	 4187	9999.9	9999.9	454.8	20.80	11.99	9.393	7.669	5.488	3.900	3.353	4.339	2.514	2.927	3.499
390.0	294.0	227.2	349.5	467.4	611.5	708.7	806.8	891.8	819.0	948.3	924.4	848.1	912.4	959.9	938.5	943.7	939.5	863.8	843.1	824.6	784.4	766.5	756.3	744.1	714.6	700.1	697.2	638.6	631.2	706.0	528.5	357.5	282.6	215.0	169.3	126.7	340.3	 3279	9999.9	9999.9	448.0	18.01	10.95	11.94	7.347	6.443	4.760	4.115	3.516	2.702	3.719
395.0	209.6	205.7	359.2	391.3	605.4	646.0	862.8	778.1	933.4	933.9	920.3	882.2	933.3	974.4	952.4	 1003	968.7	880.8	847.1	817.0	775.1	793.9	793.5	780.7	767.9	769.9	718.2	687.6	635.5	655.3	692.2	493.7	351.1	286.0	221.7	161.7	128.9	280.1	 3897	9999.9	9999.9	421.8	18.91	16.04	8.643	5.806	5.777	5.588	4.874	4.989	4.532
400.0	235.6	166.9	357.2	505.8	505.3	728.8	920.4	930.0	850.1	939.1	912.4	916.8	956.2	929.1	997.7	981.7	959.5	934.0	852.7	861.1	788.0	806.0	810.1	798.1	801.5	806.2	777.8	761.3	704.5	660.5	695.5	659.1	462.4	355.2	278.3	213.5	154.1	116.8	321.3	 4144	9999.9	9999.9	382.6	24.32	9.558	7.145	7.816	4.372	5.008	3.644	2.758
405.0	136.6	255.3	404.8	459.2	576.9	723.6	818.9	848.8	920.1	938.6	920.2	932.1	960.6	952.7	 1004	996.0	976.7	932.5	866.6	848.0	815.1	788.7	826.5	804.2	809.4	819.4	818.7	797.5	743.4	685.1	653.2	722.5	625.2	448.1	339.0	263.5	205.8	148.8	117.8	329.5	 3115	9999.9	9999.9	417.2	14.69	11.06	7.686	6.567	5.304	5.405	4.095
410.0	156.2	248.7	384.7	445.9	594.5	737.7	754.1	844.3	922.8	946.4	912.3	954.6	916.2	 1004	 1032	 1005	951.3	945.3	892.7	836.2	800.4	801.0	819.5	795.2	823.3	836.8	809.4	804.5	771.4	746.6	667.1	642.9	693.7	577.6	426.2	307.0	252.2	181.2	129.0	103.4	259.0	 2891	9999.9	9999.9	312.5	16.04	9.726	7.152	7.970	4.640	4.982
415.0	160.9	251.0	440.1	412.6	546.5	758.4	744.5	805.0	896.0	954.1	972.5	940.1	986.4	948.4	990.4	 1017	987.3	897.1	898.1	855.9	793.3	778.3	805.5	837.5	822.6	820.3	806.1	813.9	798.3	767.9	716.8	663.3	665.4	673.7	518.9	373.4	298.8	225.2	165.8	111.6	98.54	235.8	 2675	9999.9	 8765	321.1	13.69	10.87	8.348	6.642	4.016
420.0	255.5	255.8	413.7	491.7	564.5	647.0	795.0	765.1	880.8	963.8	952.9	930.6	974.9	988.6	982.6	 1005	928.0	913.8	847.7	799.8	797.6	765.6	788.4	803.7	800.2	816.4	829.6	823.8	804.2	757.0	724.6	686.9	638.8	656.3	632.7	458.0	324.7	256.3	195.4	143.1	100.9	84.01	217.9	 3902	9999.9	 8220	279.0	15.28	11.83	6.285	5.834
425.0	159.5	277.9	313.2	512.4	566.1	671.1	794.8	864.6	885.8	909.3	912.8	955.8	927.3	936.8	966.3	962.3	924.9	857.7	842.8	775.5	802.0	771.9	775.0	745.6	804.9	792.6	795.8	813.4	802.1	780.8	742.8	703.8	651.6	622.3	633.5	553.0	382.3	282.9	213.3	165.4	125.0	81.01	78.20	293.2	 2423	9999.9	 7423	233.8	14.49	10.71	7.524
430.0	183.6	281.4	380.8	367.9	500.6	666.9	805.2	881.2	864.8	934.4	896.8	896.3	952.9	949.8	929.7	961.9	946.7	874.8	844.6	757.0	751.4	742.3	739.9	756.6	774.9	770.3	762.0	811.4	797.7	766.5	747.5	703.4	681.1	619.6	585.1	575.3	461.7	318.1	241.2	195.4	152.5	110.8	86.79	77.67	193.1	 2223	9999.9	 7139	216.8	15.78	10.00
435.0	220.3	234.7	449.8	345.2	569.3	626.1	726.1	816.4	859.6	862.1	974.6	928.2	962.1	949.9	982.3	944.5	876.5	869.9	821.1	767.0	732.5	716.3	706.3	714.8	748.7	758.2	778.7	786.2	795.7	763.9	723.9	722.5	668.7	614.0	581.0	542.8	530.7	387.8	271.7	208.1	173.0	126.2	102.6	76.74	70.37	184.0	 2250	9999.9	 7738	210.6	12.80
440.0	190.4	214.4	341.6	354.0	446.8	583.8	705.1	756.5	838.9	861.8	932.2	972.7	938.4	886.5	947.9	931.0	936.2	861.2	808.0	730.4	686.8	704.6	664.9	699.0	724.3	733.7	756.1	753.0	749.5	737.9	735.7	706.7	657.3	634.2	572.9	531.7	494.7	459.4	329.8	250.9	201.3	153.8	122.5	95.61	80.98	68.43	187.9	 2207	9999.9	 6808	197.2
445.0	151.0	238.0	335.8	393.6	562.4	521.5	621.7	756.6	756.9	836.0	861.2	838.9	875.3	894.1	935.8	949.8	879.5	804.1	777.5	705.2	674.7	668.2	653.9	672.4	695.8	691.5	706.7	743.0	726.9	709.3	714.9	688.2	664.3	616.5	573.9	523.0	465.0	446.4	400.2	273.3	218.0	187.9	133.6	126.4	96.93	83.06	76.18	183.3	 2642	9999.9	 6101
450.0	237.5	187.0	374.5	305.2	441.9	491.7	652.3	655.3	698.9	816.3	819.5	876.7	840.9	833.9	948.4	883.9	836.3	802.2	736.0	673.1	690.8	643.3	629.2	638.2	637.9	643.9	670.9	663.9	699.0	681.2	690.8	651.4	633.6	620.4	592.3	504.6	471.6	403.8	400.8	335.3	239.2	204.4	174.2	145.2	125.7	101.6	77.31	65.26	210.2	 2314	9999.9
455.0	163.8	299.7	241.3	298.9	397.9	490.0	553.3	635.4	753.0	728.6	842.0	826.6	804.9	809.5	890.9	853.6	815.5	771.9	716.2	647.0	613.3	594.7	608.5	603.7	603.2	607.5	636.6	644.4	648.6	643.6	661.2	623.7	616.5	604.7	548.4	520.4	449.8	380.2	369.3	361.0	291.4	219.7	187.6	162.5	143.1	118.8	91.40	72.40	68.61	183.5	 2264
460.0	156.8	200.1	266.4	356.6	319.6	418.8	599.2	663.8	630.9	719.5	773.2	771.5	834.8	792.8	846.3	860.2	786.6	767.4	663.4	609.0	621.0	582.0	581.6	569.5	548.8	578.0	585.3	598.7	614.1	600.3	598.4	577.8	590.1	586.3	540.4	498.3	432.4	382.5	348.6	344.4	321.9	253.6	207.7	179.4	162.1	132.4	108.3	89.33	66.96	56.38	177.6
465.0	167.4	201.2	270.9	314.1	335.2	391.3	567.9	605.4	596.6	663.9	740.3	718.6	759.8	799.7	794.6	758.4	765.6	721.2	633.7	580.0	554.7	509.0	542.0	522.5	532.9	525.1	524.8	559.2	572.9	563.5	548.6	552.1	545.4	544.4	515.3	464.2	421.8	389.3	332.0	317.6	303.7	287.5	228.7	200.0	170.5	156.0	125.2	99.02	73.61	58.20	52.69
470.0	100.3	163.6	255.0	304.1	404.1	408.8	484.9	556.5	595.6	649.4	684.7	721.0	781.2	736.4	724.7	729.1	689.4	642.1	525.2	523.5	530.1	480.8	482.7	480.0	478.4	495.4	472.4	496.0	516.0	514.2	510.7	507.2	506.0	507.5	475.0	448.4	412.6	371.9	329.7	294.1	280.6	296.7	254.3	207.3	182.7	160.4	133.2	103.0	80.70	64.65	47.93
475.0	111.8	143.4	222.5	289.4	328.5	414.2	437.0	499.2	527.2	618.7	601.9	626.1	668.9	664.2	673.2	683.5	617.1	606.3	538.6	496.2	466.6	458.3	444.8	442.1	438.9	463.7	453.3	460.2	477.3	474.1	478.0	472.6	460.8	460.4	460.4	435.7	389.2	354.1	310.9	283.6	262.6	253.4	257.1	216.1	180.6	158.5	139.0	105.6	84.72	62.18	49.77
480.0	110.7	162.5	157.4	178.6	292.2	331.3	419.6	497.8	507.9	547.5	592.8	598.7	631.8	652.6	634.1	611.2	557.5	516.2	491.5	469.2	449.1	415.9	418.6	414.3	410.8	409.4	407.7	419.0	437.4	431.2	434.9	433.4	429.5	438.6	417.4	386.0	347.3	321.2	298.0	269.7	242.9	235.4	234.9	229.0	197.7	157.5	138.4	117.4	82.79	70.30	55.76
485.0	119.4	206.9	224.2	220.1	216.0	347.4	361.4	456.2	427.9	529.7	589.2	571.4	593.8	561.0	622.3	593.6	549.1	527.5	486.4	441.8	408.0	393.4	380.1	373.6	386.7	371.8	377.7	386.2	395.2	407.7	393.5	413.8	396.5	408.0	397.7	373.1	345.4	310.9	286.7	258.8	245.6	227.7	215.4	222.1	209.6	162.7	139.5	113.6	90.32	76.74	57.95
490.0	88.01	112.1	197.0	273.4	268.4	303.2	359.5	411.3	436.0	471.4	532.3	568.2	549.0	603.1	542.3	528.7	548.2	506.8	461.6	411.3	370.3	352.4	347.2	348.3	353.7	348.0	353.5	363.8	372.1	373.7	380.2	372.5	372.8	379.4	361.1	349.1	321.2	295.4	271.7	261.4	232.2	214.3	209.4	196.0	201.9	178.6	143.2	122.0	92.73	78.76	63.75
495.0	100.4	126.6	153.3	244.5	259.9	312.6	328.2	344.2	396.4	475.1	457.3	523.4	553.5	550.6	534.5	527.3	508.5	479.6	429.0	397.8	353.6	337.9	326.3	325.3	328.0	323.5	336.5	336.4	338.7	345.9	355.8	354.5	339.4	362.4	339.8	323.7	299.7	286.1	258.0	235.1	219.4	203.6	196.9	187.8	183.2	188.7	144.4	116.9	99.39	78.04	69.55
500.0	87.31	153.2	164.0	169.7	220.5	288.9	319.3	347.1	373.5	424.0	430.5	456.5	498.6	496.9	496.5	477.3	461.1	447.5	393.6	360.9	347.7	322.8	287.5	296.5	292.1	294.7	299.7	309.2	302.6	310.4	314.0	320.2	322.8	316.8	320.1	297.6	286.3	254.9	252.6	223.2	208.6	203.2	185.8	181.0	170.5	170.0	164.8	120.4	95.07	80.56	68.24
505.0	85.02	142.7	165.6	143.7	168.9	248.5	290.7	345.0	365.7	371.1	442.2	387.6	471.3	439.9	445.4	476.7	444.7	401.5	351.1	325.3	294.0	274.9	286.5	262.7	273.5	280.5	271.5	290.6	280.8	293.0	276.8	292.4	293.5	286.5	285.2	283.0	248.5	245.1	227.4	205.4	194.7	190.3	173.6	161.5	150.8	149.4	150.2	140.8	98.81	82.19	73.01
510.0	83.93	95.64	106.8	157.2	226.3	196.1	278.1	331.6	354.3	333.2	374.0	385.9	380.8	432.0	401.0	423.9	387.8	364.2	317.3	300.1	278.8	260.0	257.2	238.0	246.4	250.6	255.2	247.7	253.8	259.1	263.1	257.0	259.7	269.8	264.2	245.9	229.1	210.8	204.2	195.5	186.9	171.8	157.9	156.4	144.1	135.2	127.2	133.1	111.2	83.98	69.27
515.0	98.96	50.11	122.3	109.7	170.5	207.1	236.2	308.0	276.3	337.4	337.4	358.4	358.2	392.8	396.6	400.9	351.5	342.3	304.1	274.7	252.0	239.7	224.1	221.0	219.8	215.8	215.8	218.4	218.6	230.7	228.5	233.3	225.4	237.7	224.7	226.0	209.6	200.3	194.3	177.1	167.9	163.5	148.3	138.9	132.4	123.6	116.0	110.4	110.7	86.84	70.86
520.0	64.69	97.53	115.2	110.4	144.9	224.1	218.0	228.7	252.3	258.6	268.7	271.9	321.4	383.8	356.8	373.0	341.9	313.7	271.4	260.1	226.0	207.8	209.3	209.7	194.1	197.0	193.8	203.1	200.0	200.7	208.1	198.0	214.0	214.4	206.9	204.8	184.3	187.8	165.7	160.6	148.0	144.2	137.2	130.7	115.6	110.8	108.5	99.78	100.6	93.43	72.28
525.0	68.33	121.7	104.9	101.0	83.93	172.0	187.9	206.8	248.9	250.9	287.8	295.9	326.6	325.9	354.6	339.1	308.0	274.6	268.0	239.3	210.9	190.8	187.3	181.4	169.6	186.6	180.2	177.2	174.7	183.1	186.1	187.2	194.6	190.7	186.3	176.1	171.7	171.4	155.8	136.5	132.6	129.7	130.3	117.6	113.3	106.9	91.51	83.12	81.32	93.17	75.06
530.0	70.93	82.63	103.7	136.5	170.5	166.9	156.8	200.8	237.1	206.0	257.0	263.1	273.8	290.6	309.9	299.5	292.6	266.7	239.0	215.3	190.3	172.6	171.0	160.7	170.5	152.9	153.7	155.3	146.4	153.5	160.4	157.1	171.5	154.7	164.3	167.1	155.0	137.3	135.7	124.2	129.9	113.8	105.7	107.2	98.74	90.03	85.44	82.99	72.16	76.08	76.19
535.0	43.78	64.42	72.35	106.9	143.7	145.8	193.1	133.1	168.7	190.3	227.1	241.3	227.3	270.0	280.7	278.8	248.2	216.8	221.9	190.6	169.3	169.0	143.2	158.3	143.3	148.3	135.9	151.9	140.7	136.9	147.1	145.2	146.6	147.4	144.1	139.5	140.5	132.0	122.5	107.7	117.8	106.3	96.96	91.32	87.49	88.17	79.91	73.16	69.27	63.49	67.02
540.0	57.83	40.24	64.88	90.15	118.7	83.09	158.2	129.8	150.5	200.7	193.1	219.9	238.6	209.6	260.0	236.6	215.9	213.5	183.5	178.9	156.6	137.6	142.3	133.3	128.6	124.4	122.5	122.2	123.6	127.4	127.8	131.0	123.3	130.1	129.0	119.5	127.8	118.1	114.7	101.0	101.7	95.07	87.58	87.40	81.93	81.39	74.96	63.69	66.26	58.83	57.60
545.0	44.85	64.21	27.11	50.84	118.4	106.0	124.5	135.2	174.5	175.1	175.5	193.2	207.3	185.3	247.7	252.3	212.0	182.7	165.8	151.5	151.9	130.0	122.0	114.3	110.3	112.9	110.6	107.0	111.6	110.2	114.5	114.4	109.7	115.3	117.0	109.6	108.7	97.01	99.44	91.14	90.14	87.32	83.20	81.94	73.94	70.03	64.20	62.61	57.85	53.87	53.15
550.0	58.75	66.65	96.60	52.97	90.13	106.0	126.6	124.8	134.1	161.4	136.2	167.1	174.7	174.8	185.5	315.0	240.3	173.9	154.1	129.7	133.3	117.0	112.0	115.1	118.2	108.3	102.9	99.18	103.3	106.0	98.97	103.7	104.8	100.5	108.0	104.7	97.21	92.29	97.44	84.18	86.11	75.05	75.26	73.86	69.58	66.06	65.43	59.48	56.31	49.60	49.70
