Sample:	'SLABO1-5-5-320
File name:	3P4.FD3
Run Date:	16:07:47, 08/24/2022
Operator:	Administrator
Comment:	'

Instrument
Model:	F-7000 FL Spectrophotometer
Serial Number:	2354-007
ROM Version:	5J14000 06

Instrument Parameters
Measurement type:	3-D Scan
Data mode:	Fluorescence
EX  Start WL:	200.0 nm
EX  End WL:	450.0 nm
EX Sampling Interval:	5.0 nm
EM  Start WL:	280.0 nm
EM  End WL:	550.0 nm
EM Sampling Interval:	5.0 nm
Scan speed:	12000 nm/min
EX Slit:	5.0 nm
EM Slit:	5.0 nm
PMT Voltage:	700 V
Response:	Auto 
Corrected spectra:	Off
Shutter control:	On
Contour interval:	25.000

Peak integration
Integration method:	Rectangular
Sensitivity:	1
Threshold:	1.000

Peaks
No.	ApexEX/EM(nm)	Height(Data)
1	205.0/510.0	129.1
2	210.0/450.0	348.5
3	210.0/505.0	169.6
4	210.0/535.0	117.4
5	215.0/465.0	316.3
6	215.0/520.0	134.6
7	220.0/300.0	845.7
8	220.0/505.0	203.3
9	220.0/540.0	93.23
10	225.0/295.0	724.5
11	225.0/475.0	370.9
12	230.0/340.0	 1279
13	230.0/390.0	675.9
14	230.0/480.0	332.9
15	230.0/515.0	189.9
16	235.0/415.0	716.2
17	235.0/425.0	672.3
18	240.0/385.0	760.2
19	240.0/440.0	588.7
20	245.0/545.0	125.4
21	250.0/290.0	684.8
22	250.0/375.0	738.0
23	250.0/400.0	794.6
24	250.0/420.0	750.1
25	250.0/435.0	702.2
26	250.0/450.0	666.6
27	250.0/525.0	191.7
28	255.0/395.0	760.3
29	255.0/440.0	703.1
30	260.0/370.0	756.2
31	260.0/380.0	749.8
32	260.0/415.0	734.4
33	260.0/450.0	689.9
34	265.0/375.0	744.1
35	265.0/395.0	759.2
36	265.0/425.0	736.0
37	265.0/440.0	664.8
38	265.0/505.0	335.6
39	270.0/370.0	737.4
40	270.0/385.0	780.7
41	270.0/410.0	725.4
42	270.0/435.0	668.1
43	270.0/520.0	250.1
44	275.0/305.0	812.2
45	275.0/380.0	736.7
46	275.0/400.0	734.7
47	275.0/415.0	702.6
48	275.0/430.0	676.5
49	280.0/310.0	887.1
50	285.0/315.0	895.2
51	285.0/340.0	569.7
52	290.0/320.0	768.0
53	295.0/330.0	679.2
54	300.0/335.0	662.4
55	300.0/390.0	586.5
56	305.0/340.0	636.9
57	305.0/410.0	578.6
58	310.0/345.0	605.3
59	315.0/350.0	543.5
60	315.0/415.0	553.4
61	320.0/360.0	566.0
62	320.0/400.0	553.5
63	325.0/365.0	586.0
64	325.0/410.0	550.5
65	330.0/370.0	576.2
66	330.0/420.0	529.5
67	335.0/375.0	571.7
68	335.0/415.0	544.5
69	340.0/385.0	556.6
70	340.0/420.0	533.4
71	340.0/430.0	515.6
72	345.0/390.0	565.8
73	350.0/395.0	548.9
74	350.0/420.0	604.4
75	350.0/440.0	578.9
76	355.0/405.0	505.6
77	360.0/410.0	502.4
78	365.0/415.0	487.5
79	370.0/300.0	4.288
80	370.0/425.0	434.4
81	375.0/430.0	420.5
82	380.0/435.0	372.2
83	390.0/450.0	278.9
84	395.0/455.0	245.6
85	400.0/300.0	4.211
86	400.0/460.0	212.4
87	405.0/470.0	185.1
88	410.0/335.0	4.260
89	410.0/475.0	158.8
90	415.0/480.0	134.8
91	420.0/315.0	4.247
92	425.0/290.0	3.260
93	425.0/350.0	4.191
94	425.0/495.0	105.8
95	430.0/355.0	4.105
96	430.0/500.0	97.18
97	435.0/290.0	3.504
98	435.0/335.0	3.508
99	440.0/305.0	4.310
100	440.0/320.0	3.628
101	440.0/515.0	71.00
102	445.0/345.0	4.893
103	445.0/520.0	65.09

Data Points
	200.0	205.0	210.0	215.0	220.0	225.0	230.0	235.0	240.0	245.0	250.0	255.0	260.0	265.0	270.0	275.0	280.0	285.0	290.0	295.0	300.0	305.0	310.0	315.0	320.0	325.0	330.0	335.0	340.0	345.0	350.0	355.0	360.0	365.0	370.0	375.0	380.0	385.0	390.0	395.0	400.0	405.0	410.0	415.0	420.0	425.0	430.0	435.0	440.0	445.0	450.0
280.0	131.3	78.02	67.58	73.07	76.58	47.59	31.70	30.65	81.08	150.2	221.2	222.7	134.9	55.62	27.99	481.6	 3087	 1384	49.86	8.343	4.678	4.175	5.542	2.856	3.135	1.807	3.162	3.049	2.427	1.788	2.446	1.863	1.610	2.939	2.078	1.445	1.588	1.239	1.103	1.549	1.260	1.053	0.906	0.895	1.209	1.502	1.151	0.732	1.074	0.863	0.999
285.0	448.1	350.4	250.4	321.3	356.2	260.6	156.7	73.27	172.1	360.5	506.6	492.3	444.7	214.5	93.04	88.86	 1113	 8859	 5086	315.6	7.321	7.744	9.290	5.366	4.013	2.208	3.419	2.289	2.202	2.693	3.063	2.282	2.256	3.114	1.642	1.889	2.535	1.486	1.795	2.168	2.574	1.850	1.601	0.828	1.831	1.703	1.309	1.547	2.008	1.800	1.283
290.0	695.7	635.9	564.1	518.8	559.2	479.0	238.8	131.4	220.2	486.6	684.8	632.3	482.9	490.0	234.8	110.3	124.1	 2928	9999.9	 8320	423.9	11.54	11.21	6.308	5.733	3.963	3.384	2.337	3.166	3.221	2.233	1.822	2.244	2.898	1.840	2.181	1.436	1.537	2.578	2.941	2.473	1.987	2.203	1.105	2.370	3.260	2.100	3.504	3.000	2.585	2.449
295.0	 1200	733.1	654.0	704.7	720.6	724.5	389.3	208.6	267.4	483.1	677.2	613.7	443.7	466.9	552.4	232.8	138.0	280.6	 4367	9999.9	9999.9	479.0	15.42	10.32	7.277	6.087	3.990	4.015	2.545	2.734	3.171	2.227	3.524	2.968	2.788	2.268	2.457	2.324	3.353	3.156	3.305	2.535	2.173	1.925	2.807	2.076	3.016	3.024	3.313	3.810	3.911
300.0	 1129	742.1	661.2	838.6	845.7	700.4	447.6	292.2	336.7	520.8	635.8	547.2	429.9	335.3	587.5	608.7	234.8	162.3	361.8	 6414	9999.9	9999.9	504.7	15.99	12.61	7.610	6.771	5.389	3.568	4.795	4.261	3.324	2.658	1.558	4.288	3.072	2.777	3.301	2.668	4.009	4.211	3.031	2.617	2.892	3.055	3.168	2.515	3.358	3.159	4.549	2.821
305.0	 1094	884.1	593.2	698.3	840.6	679.4	494.0	373.3	326.8	374.9	483.7	428.2	376.9	333.8	368.4	812.2	585.9	240.0	135.7	469.0	 5981	9999.9	9999.9	553.5	20.37	13.19	12.14	6.764	5.172	3.791	5.205	3.590	2.815	2.525	3.116	3.160	2.200	2.784	2.524	3.529	2.287	3.466	2.497	2.600	2.746	3.207	2.958	2.770	4.310	3.913	3.407
310.0	954.8	740.6	641.3	612.1	645.2	657.4	482.7	344.6	280.3	383.1	369.4	380.5	361.2	322.9	329.2	483.1	887.1	477.8	170.5	126.6	443.1	 5798	9999.9	9999.9	558.2	18.53	14.03	10.28	9.049	7.878	6.601	3.048	4.358	3.796	3.820	2.987	2.838	2.723	2.897	3.591	3.133	3.576	3.308	1.977	2.068	2.940	2.366	2.991	2.205	2.854	3.211
315.0	732.9	695.2	620.8	600.0	569.6	579.4	464.0	342.4	291.0	265.7	339.9	321.9	324.8	301.1	359.6	386.0	557.9	895.2	363.2	120.6	119.5	428.4	 6909	9999.9	9999.9	473.2	24.59	11.70	12.99	8.729	9.841	5.531	4.042	3.300	3.798	3.390	2.501	2.115	2.531	3.851	3.604	2.583	3.018	3.523	4.247	2.785	2.274	1.903	3.279	3.205	3.240
320.0	564.7	525.5	540.1	485.7	631.3	741.7	651.2	508.9	320.5	265.6	292.1	307.5	338.1	340.7	378.5	410.0	404.1	605.9	768.0	271.4	124.8	114.6	497.5	 6607	9999.9	9999.9	480.8	18.33	17.19	14.08	12.09	5.539	4.538	4.857	3.473	4.524	2.498	2.690	3.000	2.824	2.173	2.719	2.230	3.209	2.590	2.387	3.606	3.369	3.628	3.487	2.947
325.0	612.3	493.5	570.0	567.6	759.9	891.5	958.6	752.5	432.3	280.9	275.2	294.8	351.7	391.5	460.1	463.9	469.4	461.9	684.6	652.2	223.5	126.9	126.4	486.1	 6750	9999.9	9999.9	484.6	18.33	18.22	14.73	7.613	7.981	5.224	4.134	4.090	2.547	2.430	3.271	2.232	3.279	2.731	3.199	2.484	2.811	2.480	2.836	3.183	3.163	3.727	3.957
330.0	303.8	429.9	410.9	549.1	688.4	990.6	 1099	921.0	488.0	312.5	304.7	309.7	379.2	391.0	471.8	493.6	518.0	456.6	424.1	679.2	559.9	171.4	113.4	109.7	500.6	 5795	9999.9	9999.9	479.0	26.81	26.06	12.73	9.356	7.282	5.070	4.820	4.486	3.385	2.798	2.731	2.879	2.858	2.699	2.854	3.170	2.747	2.478	2.943	3.551	4.340	3.501
335.0	434.9	361.4	511.0	556.6	767.6	 1117	 1257	970.4	574.3	368.7	276.9	307.7	354.1	415.1	455.7	504.4	513.3	470.8	399.0	374.9	662.4	427.9	155.9	104.2	109.4	436.8	 7057	9999.9	9999.9	511.9	35.09	16.06	11.78	7.625	7.973	5.371	4.493	3.599	3.373	2.996	2.857	2.462	4.260	1.761	2.886	2.717	2.905	3.508	2.163	4.105	4.378
340.0	285.1	343.1	399.7	567.4	700.6	 1068	 1279	 1033	615.1	424.5	323.0	364.2	383.4	414.9	474.4	533.0	531.9	569.7	437.2	365.4	375.0	636.9	341.7	138.6	112.2	110.7	518.1	 5502	9999.9	9999.9	619.5	28.45	19.24	11.80	10.54	7.402	5.359	3.558	3.407	3.119	3.753	3.198	2.380	1.562	3.025	2.278	2.237	2.476	4.027	3.901	4.691
345.0	194.6	331.5	358.4	449.2	685.8	901.1	 1170	978.9	650.5	441.9	396.0	392.9	388.8	449.9	498.6	560.9	559.8	560.4	465.0	397.0	333.8	381.5	605.3	273.5	148.6	121.5	128.0	418.7	 5430	9999.9	9999.9	547.2	25.80	17.02	14.98	10.32	7.257	4.573	2.789	2.759	3.541	2.872	3.236	2.296	2.851	2.244	2.925	2.777	3.900	4.893	4.105
350.0	312.2	315.0	401.2	539.1	676.8	767.6	 1060	956.3	640.5	483.0	438.2	423.5	442.5	480.3	516.0	578.3	580.9	556.7	494.1	409.1	361.4	306.7	444.1	543.5	241.2	144.7	133.2	124.7	415.2	 6127	9999.9	9999.9	558.0	24.45	21.23	13.28	10.90	6.547	5.165	2.911	2.761	4.502	1.809	2.382	2.466	4.191	3.010	3.348	4.096	4.157	4.598
355.0	227.6	302.1	436.1	507.5	604.2	828.1	 1020	868.5	667.5	569.4	549.2	543.2	566.2	545.4	585.3	604.4	627.0	564.5	532.2	471.6	432.6	327.2	345.3	522.3	505.0	233.0	159.4	134.0	131.4	460.7	 6854	9999.9	9999.9	585.5	31.22	17.95	14.46	8.677	7.650	5.048	4.293	4.254	3.020	3.418	3.254	1.947	4.105	2.972	3.674	3.673	3.758
360.0	206.4	197.1	354.4	403.4	501.9	797.3	875.3	825.9	733.9	612.4	591.6	644.2	630.0	650.4	653.9	606.9	623.9	616.9	582.3	508.4	465.8	422.1	364.5	363.7	566.0	440.2	212.7	166.2	137.6	129.1	519.0	 4968	9999.9	9999.9	563.1	30.31	18.20	13.07	8.882	6.740	4.257	4.064	3.347	3.236	3.027	2.529	3.266	2.548	3.053	2.763	3.565
365.0	145.9	323.4	305.7	410.0	484.6	722.4	773.9	792.9	722.8	651.0	599.9	639.3	666.7	679.2	688.8	689.4	645.1	628.3	593.1	531.7	468.4	440.7	381.8	362.2	409.3	586.0	392.4	230.3	181.1	148.4	134.3	380.7	 4656	9999.9	9999.9	572.0	26.25	17.69	9.698	7.032	7.309	5.443	3.729	2.882	3.082	4.229	3.289	3.299	2.551	2.424	3.239
370.0	234.1	274.1	342.0	467.6	540.2	568.0	810.9	786.1	712.6	650.2	671.6	667.0	756.2	712.7	737.4	692.6	649.6	638.7	575.5	544.5	527.1	480.0	443.3	406.1	392.9	446.2	576.2	351.5	214.0	168.1	130.5	114.1	358.0	 4743	9999.9	9999.9	542.0	23.80	18.09	9.436	9.626	7.603	4.076	3.321	3.709	3.512	2.934	3.720	2.947	3.298	3.612
375.0	197.5	268.6	335.7	396.7	588.4	675.0	720.8	756.0	702.2	705.8	738.0	678.6	736.0	744.1	719.4	723.4	677.1	605.1	612.6	544.0	555.1	482.7	484.1	448.8	421.9	404.6	510.9	571.7	327.9	221.3	173.0	124.7	104.9	361.8	 5083	9999.9	9999.9	578.5	22.97	16.17	11.20	8.763	4.491	5.376	4.738	4.182	3.749	3.238	3.482	3.232	3.669
380.0	259.0	357.5	328.4	447.1	441.1	715.1	689.5	738.7	698.5	705.0	723.0	701.9	749.8	726.8	729.3	736.7	683.9	626.4	609.6	590.3	548.8	526.5	496.7	489.9	463.7	448.9	418.7	554.2	504.1	280.2	209.5	164.7	118.5	103.1	383.3	 4868	9999.9	9999.9	503.4	21.20	14.25	9.725	7.690	6.701	5.757	4.625	3.223	2.906	2.692	4.027	3.509
385.0	242.9	247.1	257.1	441.9	574.7	623.2	651.7	686.0	760.2	728.1	703.4	726.8	744.4	762.2	780.7	719.2	706.2	635.4	575.7	581.4	539.2	538.7	532.1	510.5	489.3	460.8	432.0	439.9	556.6	457.2	272.0	203.3	150.8	115.2	110.3	367.5	 4151	9999.9	9999.9	498.5	21.44	15.58	11.05	6.704	7.593	5.005	4.307	3.836	3.832	4.448	2.846
390.0	188.7	190.3	344.0	436.5	472.7	537.3	675.9	616.0	698.4	689.0	752.7	714.1	735.1	706.6	766.2	751.1	678.9	642.4	598.4	571.8	586.5	555.9	538.3	526.1	494.2	481.6	468.0	431.8	449.0	565.8	383.9	252.9	185.6	152.9	117.8	102.1	324.0	 3703	9999.9	9999.9	480.7	20.90	12.92	10.53	9.961	6.390	5.174	5.869	3.259	3.076	3.597
395.0	210.7	359.9	299.7	496.3	522.3	481.2	649.6	709.4	695.2	753.3	757.6	760.3	739.1	759.2	715.9	715.3	696.5	645.7	594.3	615.5	565.1	546.7	540.7	542.2	524.5	505.8	510.4	473.6	442.5	473.9	548.9	348.4	224.6	186.5	143.5	106.5	92.80	289.5	 3535	9999.9	9999.9	503.6	16.39	12.72	11.06	6.861	4.951	4.414	4.227	4.024	2.801
400.0	124.4	329.0	320.2	442.6	418.5	565.2	648.8	606.9	710.3	679.2	794.6	727.2	722.2	714.5	700.5	734.7	714.8	664.9	613.0	596.2	553.2	560.6	552.4	539.6	553.5	531.2	514.3	511.9	462.5	438.0	504.0	485.0	301.5	233.8	179.1	140.7	100.9	90.74	276.5	 3326	9999.9	9999.9	416.7	16.75	17.36	8.808	7.363	5.069	4.353	3.511	3.621
405.0	180.5	291.2	320.9	327.8	526.3	628.7	606.1	667.6	662.0	701.4	772.7	692.0	711.5	707.8	722.3	696.7	663.0	653.0	612.6	589.3	553.1	571.9	559.3	556.4	526.1	538.4	521.6	518.7	487.0	458.8	484.6	505.6	423.7	298.0	228.5	176.4	132.9	90.08	81.15	260.2	 3141	9999.9	9999.9	396.7	23.05	12.59	7.232	6.335	5.806	4.380	3.301
410.0	168.6	258.2	346.8	422.4	515.1	527.3	614.3	640.5	659.2	710.8	728.5	719.7	682.0	719.8	725.4	699.8	666.5	656.4	597.9	601.9	543.5	578.6	564.7	541.8	529.5	550.5	542.8	531.9	513.1	464.5	539.3	433.9	502.4	403.0	262.9	209.6	166.6	114.4	86.77	71.17	245.1	 3183	9999.9	9999.9	535.5	19.01	11.64	8.174	7.239	5.047	4.909
415.0	280.1	289.5	365.7	427.4	530.8	642.6	621.2	716.2	667.6	674.9	732.1	727.1	734.4	678.0	673.2	702.6	687.0	653.3	605.1	577.4	521.2	543.9	540.4	553.4	549.1	528.3	525.5	544.5	504.0	478.5	595.3	423.5	445.0	487.5	335.9	227.0	184.3	135.4	98.40	77.28	71.36	239.9	 2863	9999.9	9999.9	361.9	17.26	12.01	7.027	6.368	6.002
420.0	232.3	252.3	389.0	499.9	444.9	608.9	648.4	611.8	652.8	645.1	750.1	717.1	719.3	718.7	651.4	661.9	655.7	622.0	561.8	556.6	517.8	518.5	530.5	521.9	511.4	525.9	529.5	519.2	533.4	493.8	604.4	432.9	401.3	443.1	432.4	288.1	207.7	147.4	116.4	86.64	70.36	61.54	215.3	 2809	9999.9	9999.9	304.4	13.73	9.627	7.472	6.675
425.0	213.4	296.8	352.6	426.1	443.5	550.2	651.1	672.3	615.1	643.2	694.0	706.3	711.6	736.0	624.6	633.5	662.7	599.1	559.0	556.1	510.5	503.0	529.6	523.3	514.2	512.4	529.4	513.0	501.1	497.1	579.8	427.7	410.3	379.2	434.4	386.2	241.9	170.2	135.9	102.1	81.42	62.21	58.23	208.8	 2850	9999.9	 8759	272.0	15.83	9.731	6.018
430.0	170.0	238.0	350.2	394.2	606.3	530.0	592.3	610.0	568.9	650.4	681.3	664.4	666.0	662.0	648.4	676.5	627.1	603.0	587.6	539.6	495.0	493.1	490.8	486.6	485.7	496.9	501.8	503.5	515.6	487.0	562.1	432.6	407.2	379.1	377.6	420.5	307.9	201.7	151.7	117.6	91.90	73.45	53.27	51.78	212.7	 2995	9999.9	 8355	238.5	13.74	8.617
435.0	127.5	333.1	307.8	346.1	428.7	508.5	568.3	612.0	542.1	635.0	702.2	688.1	656.7	656.8	668.1	640.3	618.6	528.4	540.4	501.5	487.7	475.5	464.3	472.4	474.9	471.8	493.1	474.0	501.9	468.8	566.7	437.5	414.4	388.6	353.0	354.2	372.2	243.9	165.5	138.4	107.9	76.95	61.16	52.73	55.59	217.6	 2565	9999.9	 8086	233.0	13.13
440.0	204.1	316.9	360.6	362.3	471.0	531.3	470.4	549.4	588.7	558.2	669.9	703.1	633.5	664.8	615.2	609.9	558.5	516.7	516.0	515.0	432.4	457.0	476.7	456.4	444.1	464.2	469.1	471.8	478.9	455.0	578.9	434.0	404.4	391.5	367.1	318.7	333.0	319.8	211.9	151.6	121.5	90.71	74.66	58.75	52.30	50.32	189.8	 2450	9999.9	 7550	207.0
445.0	125.5	242.3	303.1	347.8	394.1	460.8	509.3	575.0	552.7	603.4	625.7	656.9	631.8	641.0	611.9	623.6	570.7	525.7	510.2	461.6	437.0	435.1	424.0	419.6	417.8	441.5	430.1	437.1	455.2	451.5	525.2	412.7	421.9	380.5	362.3	323.7	293.1	299.7	269.0	165.7	127.6	104.0	77.98	66.68	56.25	45.97	44.81	183.9	 2725	9999.9	 6219
450.0	180.7	255.7	348.5	266.9	417.1	435.9	433.9	492.3	503.4	598.0	666.6	627.3	689.9	647.1	586.2	597.2	566.5	479.5	454.4	451.6	427.5	399.2	409.6	406.8	398.4	420.0	408.3	427.4	446.6	420.5	505.6	402.5	389.6	365.9	346.4	304.2	276.3	246.9	278.9	216.2	147.6	118.9	90.42	75.13	67.65	52.61	37.42	41.58	192.7	 2378	9999.9
455.0	156.0	154.1	266.0	314.5	323.4	379.3	412.6	434.8	476.9	556.1	613.4	610.0	594.0	582.3	545.6	578.9	518.4	457.6	411.1	414.2	389.5	371.0	387.7	388.3	372.8	371.0	384.6	384.5	405.9	402.7	479.4	378.8	366.1	367.8	343.7	306.2	272.9	242.7	228.0	245.6	179.2	122.2	94.56	79.71	72.69	55.16	48.68	38.01	42.19	171.9	 2330
460.0	106.6	203.6	266.9	239.3	317.4	299.3	414.2	469.2	491.7	561.1	552.3	576.3	614.7	567.0	557.4	541.3	487.5	439.2	397.3	349.5	354.0	327.4	353.3	340.2	339.1	347.4	340.5	362.7	371.8	366.3	422.7	358.9	347.4	351.4	324.9	301.0	267.0	234.3	209.0	212.2	212.4	146.7	102.6	82.46	74.92	62.88	51.47	41.33	35.32	35.41	169.4
465.0	134.4	241.2	248.6	316.3	281.2	376.7	397.2	427.6	425.9	489.5	539.6	563.3	568.8	545.6	501.7	483.0	456.8	401.0	366.3	362.2	330.3	327.9	323.2	308.1	319.5	329.0	333.8	333.5	349.7	347.2	381.5	338.3	321.8	318.9	315.2	279.7	254.0	230.5	199.4	177.8	194.7	181.4	117.5	91.54	78.42	69.71	55.45	45.99	41.52	33.96	35.62
470.0	153.8	231.8	222.1	290.8	265.6	296.9	324.7	405.0	418.2	460.5	467.2	505.0	527.4	496.2	484.3	460.8	435.0	389.1	374.6	332.4	297.4	294.0	270.8	301.3	294.5	288.1	310.5	301.2	318.7	311.1	350.2	311.6	307.3	300.7	281.5	272.9	241.9	216.4	200.7	166.2	153.5	185.1	146.2	99.49	85.06	73.35	57.49	50.94	39.40	33.31	28.40
475.0	89.17	152.2	259.6	270.9	281.0	370.9	321.8	297.6	364.7	356.0	475.7	470.8	477.4	472.1	455.2	462.2	400.2	353.2	340.6	304.7	284.6	263.5	246.0	263.7	250.4	264.9	270.8	281.2	290.9	288.6	336.3	274.5	271.6	281.0	267.3	247.6	222.0	199.6	182.7	154.5	139.7	136.7	158.8	117.5	82.04	73.14	59.25	52.30	48.15	37.20	28.14
480.0	98.16	138.0	192.0	202.3	271.1	268.6	332.9	295.0	355.9	378.0	410.6	453.7	448.9	426.3	407.7	400.2	389.9	351.2	308.2	277.7	255.3	249.2	243.3	252.8	231.6	246.7	247.2	255.0	265.4	278.6	286.6	256.8	265.1	254.7	234.4	226.8	211.0	186.3	176.7	149.7	132.1	126.9	131.5	134.8	100.7	76.35	63.46	55.09	44.75	39.27	30.31
485.0	112.5	146.6	157.0	217.0	243.3	220.4	259.0	286.1	354.8	381.3	387.1	452.3	430.4	395.8	391.4	380.8	368.6	334.3	307.7	268.3	239.7	228.9	221.8	217.4	233.0	220.3	225.2	225.8	230.1	238.7	261.4	234.0	235.6	243.9	229.1	226.0	204.1	177.1	164.0	148.5	134.3	118.6	113.9	126.2	124.4	80.38	68.68	57.82	45.89	42.40	33.54
490.0	85.70	115.0	139.1	139.9	207.3	248.1	236.1	275.5	311.7	341.7	387.2	348.5	384.9	384.9	355.7	378.4	343.6	317.9	288.7	252.0	238.8	206.9	209.6	193.3	212.4	215.8	201.3	212.3	220.7	223.0	227.6	215.7	225.8	236.5	207.6	205.2	187.9	176.9	150.5	144.6	126.9	117.4	100.2	103.8	116.7	97.65	65.67	56.07	52.11	43.31	39.10
495.0	99.36	156.4	145.1	184.7	204.2	234.9	257.8	248.0	283.6	319.2	321.0	329.6	347.2	346.8	356.3	377.6	339.6	290.4	271.1	230.7	215.7	208.3	193.5	199.4	185.1	188.0	188.8	197.3	202.0	209.4	219.5	205.8	198.4	194.6	203.6	189.8	181.4	168.1	158.7	138.8	126.9	112.4	101.2	91.40	97.94	105.8	82.77	59.94	48.52	43.25	40.48
500.0	117.1	65.50	165.4	144.2	167.9	197.7	207.0	223.2	248.8	261.9	305.3	292.4	345.5	319.1	321.7	351.6	314.0	273.9	241.9	219.5	203.7	190.2	183.8	178.2	168.4	169.5	171.8	168.5	185.1	176.1	188.6	183.0	176.7	181.3	182.0	173.3	171.5	148.3	139.2	134.6	116.5	98.10	98.33	86.77	88.94	92.76	97.18	70.80	53.30	43.62	40.98
505.0	142.3	93.35	169.6	123.6	203.3	154.0	172.6	220.8	217.4	265.9	282.3	263.4	279.3	335.6	298.7	277.6	273.6	239.2	218.4	207.2	199.5	161.1	162.2	165.3	162.9	161.2	160.9	157.3	158.1	166.7	169.4	177.8	161.1	163.5	160.8	157.1	150.7	139.6	124.1	116.8	103.6	99.26	92.69	84.41	78.54	73.52	90.22	85.15	57.35	48.79	43.23
510.0	103.3	129.1	116.2	118.6	150.8	156.1	143.1	176.0	196.1	262.5	221.2	264.7	258.1	286.8	252.5	286.2	247.1	212.4	202.7	181.4	182.2	152.8	143.4	140.1	146.2	143.5	142.6	143.7	146.3	145.9	157.4	148.6	149.2	146.0	152.9	142.2	138.7	125.3	113.6	101.7	102.4	90.12	89.02	80.13	74.70	66.01	72.37	78.96	70.72	51.46	40.48
515.0	85.35	93.61	125.6	99.59	114.8	160.1	189.9	181.5	170.1	175.5	209.4	262.0	246.1	245.7	238.3	248.0	243.0	213.8	185.1	183.2	158.4	149.0	136.8	139.7	136.7	133.0	132.5	130.3	131.7	129.4	139.0	125.4	128.1	127.0	131.4	137.5	127.4	112.3	108.9	103.7	90.02	88.16	77.26	77.24	66.73	66.16	61.85	66.62	71.00	58.69	42.14
520.0	56.01	102.3	80.50	134.6	86.41	158.7	164.4	173.3	139.2	167.1	172.4	201.7	220.7	207.7	250.1	217.6	214.0	197.6	173.6	154.6	137.8	136.0	129.4	117.7	122.6	116.4	118.7	114.4	122.4	115.4	123.1	122.5	116.6	123.7	121.4	122.9	109.6	109.0	98.88	89.02	84.57	81.10	79.69	66.30	69.54	62.39	56.12	54.72	62.98	65.09	45.84
525.0	44.01	101.4	66.97	122.8	115.7	118.1	152.5	142.4	167.5	170.9	191.7	173.9	192.2	214.8	191.8	205.3	182.8	184.7	154.6	141.4	130.7	119.5	118.6	101.6	101.7	101.9	107.5	106.5	109.3	104.1	111.5	110.9	104.8	99.95	112.1	108.4	103.9	98.93	91.93	82.78	81.07	78.52	69.53	66.08	60.30	57.66	51.32	51.85	51.60	58.60	52.72
530.0	38.10	73.64	56.45	126.8	84.92	126.7	109.0	122.2	145.7	133.5	142.5	167.3	173.6	192.7	205.9	179.6	186.7	137.6	130.4	135.1	116.2	106.8	108.2	100.1	99.47	91.73	91.69	90.59	95.21	87.11	99.66	100.0	95.93	101.0	100.1	96.19	89.45	88.31	81.32	75.95	69.23	64.28	66.24	63.06	59.51	53.39	47.20	47.37	42.29	50.85	54.27
535.0	71.43	36.60	117.4	88.16	79.70	91.97	126.5	127.6	130.0	113.4	151.6	154.4	157.9	154.4	179.3	170.0	155.2	134.4	134.3	106.8	100.9	91.81	92.84	85.34	88.92	90.03	92.19	82.85	86.24	82.89	90.35	89.80	87.68	86.37	94.24	85.74	87.49	83.61	74.48	72.35	64.15	64.20	58.22	56.62	52.06	48.24	47.17	44.19	38.75	38.49	43.86
540.0	73.86	58.42	101.3	88.36	93.23	89.35	68.21	90.76	110.7	124.9	122.5	156.9	135.2	150.9	165.5	166.2	124.6	127.8	123.6	108.8	102.1	96.38	81.25	76.62	84.50	75.50	80.08	73.02	74.77	75.08	79.38	78.77	81.44	78.39	79.66	74.63	75.11	66.23	67.65	60.25	59.03	53.73	51.13	49.15	45.28	46.65	45.18	38.58	34.72	34.79	34.37
545.0	39.27	50.95	72.46	41.06	60.51	63.81	63.13	77.10	101.5	125.4	123.2	119.8	102.5	142.2	168.5	189.6	131.2	111.9	112.6	94.14	76.32	79.66	78.05	74.27	68.59	69.94	66.43	66.40	66.04	72.07	64.68	63.16	70.74	69.69	72.35	66.76	67.17	62.99	55.46	52.29	49.61	49.15	46.82	43.89	44.38	38.85	37.87	36.90	33.99	30.30	28.54
550.0	26.00	54.05	66.29	51.64	110.4	69.31	75.08	79.95	86.70	92.90	94.72	118.0	114.7	136.2	124.4	249.2	176.4	112.1	92.51	80.86	73.65	68.10	74.53	63.29	59.67	65.84	58.88	60.79	68.32	61.21	63.08	62.16	65.20	64.72	70.60	62.68	57.02	62.38	51.42	52.37	48.51	47.41	43.45	37.69	38.11	34.68	36.14	34.35	31.07	29.86	27.73
