Sample:	'SLABO1-5-5-320
File name:	3P5.FD3
Run Date:	16:11:58, 08/24/2022
Operator:	Administrator
Comment:	'

Instrument
Model:	F-7000 FL Spectrophotometer
Serial Number:	2354-007
ROM Version:	5J14000 06

Instrument Parameters
Measurement type:	3-D Scan
Data mode:	Fluorescence
EX  Start WL:	200.0 nm
EX  End WL:	450.0 nm
EX Sampling Interval:	5.0 nm
EM  Start WL:	280.0 nm
EM  End WL:	550.0 nm
EM Sampling Interval:	5.0 nm
Scan speed:	12000 nm/min
EX Slit:	5.0 nm
EM Slit:	5.0 nm
PMT Voltage:	700 V
Response:	Auto 
Corrected spectra:	Off
Shutter control:	On
Contour interval:	25.000

Peak integration
Integration method:	Rectangular
Sensitivity:	1
Threshold:	1.000

Peaks
No.	ApexEX/EM(nm)	Height(Data)
1	205.0/330.0	695.9
2	210.0/310.0	879.4
3	210.0/325.0	627.2
4	210.0/370.0	522.5
5	210.0/455.0	557.6
6	210.0/540.0	164.1
7	215.0/305.0	 1083
8	220.0/300.0	 1089
9	220.0/315.0	914.5
10	220.0/545.0	159.8
11	225.0/330.0	975.2
12	230.0/340.0	 1138
13	230.0/355.0	 1147
14	230.0/380.0	 1156
15	230.0/440.0	 1036
16	230.0/490.0	554.2
17	235.0/345.0	 1158
18	235.0/375.0	 1132
19	235.0/405.0	 1275
20	235.0/415.0	 1278
21	240.0/390.0	 1200
22	245.0/420.0	 1250
23	245.0/435.0	 1226
24	250.0/295.0	704.4
25	250.0/395.0	 1293
26	250.0/525.0	395.8
27	260.0/410.0	 1386
28	260.0/425.0	 1384
29	265.0/370.0	 1200
30	265.0/405.0	 1411
31	265.0/430.0	 1362
32	270.0/385.0	 1357
33	270.0/415.0	 1386
34	270.0/440.0	 1356
35	275.0/305.0	963.3
36	275.0/405.0	 1356
37	280.0/310.0	 1140
38	285.0/315.0	 1107
39	290.0/320.0	901.9
40	295.0/330.0	758.2
41	300.0/335.0	707.1
42	305.0/340.0	720.4
43	310.0/345.0	710.2
44	310.0/405.0	 1179
45	315.0/355.0	684.5
46	320.0/360.0	778.8
47	320.0/410.0	 1188
48	325.0/365.0	841.9
49	325.0/405.0	 1178
50	330.0/370.0	876.2
51	330.0/415.0	 1226
52	335.0/380.0	920.8
53	340.0/385.0	951.0
54	345.0/390.0	940.4
55	360.0/305.0	6.507
56	365.0/290.0	4.933
57	365.0/315.0	7.887
58	395.0/315.0	5.715
59	400.0/330.0	5.212
60	415.0/300.0	4.420
61	420.0/355.0	5.631
62	430.0/305.0	5.083
63	435.0/360.0	6.222
64	440.0/340.0	5.229
65	440.0/375.0	5.878
66	445.0/330.0	5.179

Data Points
	200.0	205.0	210.0	215.0	220.0	225.0	230.0	235.0	240.0	245.0	250.0	255.0	260.0	265.0	270.0	275.0	280.0	285.0	290.0	295.0	300.0	305.0	310.0	315.0	320.0	325.0	330.0	335.0	340.0	345.0	350.0	355.0	360.0	365.0	370.0	375.0	380.0	385.0	390.0	395.0	400.0	405.0	410.0	415.0	420.0	425.0	430.0	435.0	440.0	445.0	450.0
280.0	152.5	58.74	92.78	84.07	101.8	87.92	56.40	48.67	70.57	144.0	210.0	219.0	122.1	53.90	38.39	954.4	 5566	 2116	57.83	10.67	7.694	8.291	5.472	6.411	6.172	5.883	5.215	4.233	4.330	2.743	3.268	2.124	3.533	1.752	2.589	2.614	2.588	1.792	2.300	1.922	1.743	1.832	2.476	1.447	1.159	1.406	1.126	0.855	1.099	0.747	1.487
285.0	494.2	249.3	245.1	329.6	328.8	293.2	205.8	166.8	174.5	356.5	524.8	461.0	387.9	228.7	109.5	117.8	 2187	9999.9	 7656	406.5	14.77	11.68	9.842	10.59	6.214	5.608	6.435	2.944	4.675	4.820	3.021	4.252	2.744	3.606	4.044	2.735	2.423	2.545	1.579	3.174	2.830	1.656	1.918	1.319	2.403	1.825	1.620	1.941	1.755	2.032	1.871
290.0	866.0	592.0	563.8	636.0	654.1	700.9	384.1	236.1	258.7	494.3	674.4	608.1	545.4	478.8	270.0	149.3	251.5	 4891	9999.9	9999.9	559.9	17.18	18.07	16.00	12.13	7.232	6.671	5.038	2.946	4.666	4.309	3.265	4.236	4.933	3.624	3.090	3.394	2.842	3.156	3.527	3.154	3.155	2.217	2.606	2.550	3.304	2.438	3.585	3.294	3.871	3.504
295.0	 1145	754.6	702.4	771.3	907.1	844.5	629.8	302.5	355.6	530.2	704.4	660.4	485.2	474.1	593.8	362.8	247.3	457.8	 7599	9999.9	9999.9	660.7	23.79	18.33	15.63	10.70	7.268	5.368	4.860	5.132	4.917	4.891	4.376	3.765	4.373	3.702	3.997	2.842	3.588	4.028	3.579	4.142	2.795	3.342	2.967	3.077	3.397	3.814	4.128	4.402	3.280
300.0	 1150	922.4	756.3	916.4	 1089	 1044	687.9	456.9	384.0	493.2	636.7	579.2	449.9	430.5	692.2	756.7	394.7	293.3	644.6	 9489	9999.9	9999.9	685.9	28.26	18.96	21.94	12.14	8.441	9.059	6.976	5.043	5.572	5.398	4.972	3.755	3.810	4.645	4.171	3.951	3.298	3.616	3.850	3.786	4.420	3.209	4.032	4.521	3.540	3.584	4.432	4.484
305.0	 1109	940.6	801.7	 1083	946.7	 1014	762.9	564.3	434.0	476.4	570.2	543.4	488.1	452.7	549.9	963.3	822.5	376.5	275.8	716.8	 9655	9999.9	9999.9	793.7	33.60	26.30	15.84	16.52	9.354	7.782	6.309	5.088	6.507	6.089	5.839	3.745	3.453	4.459	3.600	3.698	4.162	4.058	3.044	3.584	3.723	3.667	5.083	4.380	4.264	4.838	4.947
310.0	 1059	819.7	879.4	869.9	833.2	889.4	681.1	573.4	430.7	437.5	513.4	462.0	460.9	462.8	555.8	668.1	 1140	679.2	317.6	211.7	702.0	9999.9	9999.9	9999.9	801.1	34.88	22.24	17.98	13.45	12.50	9.744	8.941	5.339	5.777	5.303	4.820	3.764	4.127	4.731	5.477	4.101	3.456	3.673	3.932	4.036	2.737	3.783	3.969	4.014	5.012	5.038
315.0	888.0	714.4	727.0	698.5	914.5	872.9	744.2	620.2	487.9	429.1	437.4	473.4	451.6	490.2	596.4	655.6	814.1	 1107	525.9	219.8	166.1	715.1	9999.9	9999.9	9999.9	670.0	33.95	20.68	18.35	13.44	12.37	10.01	6.609	7.887	5.873	5.510	4.997	3.588	3.887	5.715	4.339	3.692	3.510	2.739	3.034	3.364	3.580	4.162	3.375	4.601	4.395
320.0	881.1	610.9	586.0	808.4	774.6	833.3	790.0	578.9	506.8	459.4	446.4	443.8	463.0	518.5	578.7	625.4	732.7	841.4	901.9	346.2	166.6	165.9	716.8	9999.9	9999.9	9999.9	663.4	34.35	25.26	21.89	19.09	13.25	8.466	6.668	6.694	4.986	4.811	4.587	5.110	4.120	4.294	4.570	3.451	3.809	4.161	2.982	3.936	3.613	4.571	4.062	3.932
325.0	589.3	593.6	627.2	577.1	795.5	847.2	986.3	751.7	525.7	479.2	460.2	465.7	493.5	554.3	618.8	752.1	787.5	732.7	807.1	739.6	266.8	167.8	161.6	724.0	9999.9	9999.9	9999.9	704.5	34.82	29.96	21.89	16.28	10.36	9.388	7.527	7.496	4.560	4.510	4.876	3.851	3.847	4.371	3.516	3.406	3.600	4.211	3.597	4.082	4.481	4.490	3.887
330.0	541.2	695.9	549.3	552.2	838.3	975.2	962.8	970.9	670.8	509.8	507.6	494.8	496.7	560.8	633.5	749.3	815.0	707.4	621.5	758.2	622.0	235.1	175.3	172.2	717.4	9999.9	9999.9	9999.9	715.8	44.84	32.45	21.62	17.45	12.17	10.39	7.411	7.503	5.096	3.987	4.370	5.212	3.395	2.939	3.995	3.377	4.156	3.544	3.846	5.123	5.179	4.761
335.0	429.9	496.2	565.2	571.4	709.0	887.3	 1041	989.1	710.0	589.0	540.2	522.5	527.3	565.6	652.3	771.4	834.8	753.3	669.6	539.3	707.1	495.2	214.3	159.4	160.2	721.6	9999.9	9999.9	9999.9	735.7	44.02	29.31	21.69	19.35	12.30	10.43	8.436	5.210	4.022	4.986	3.891	3.819	3.077	3.255	4.291	3.755	3.834	4.001	4.759	4.516	4.754
340.0	376.3	705.6	532.9	573.7	738.2	850.0	 1138	 1038	776.7	638.5	556.5	534.4	553.3	561.0	666.7	737.9	869.1	788.1	733.9	579.9	517.3	720.4	418.0	196.9	170.3	179.2	727.3	 9872	9999.9	9999.9	811.7	48.13	30.70	21.65	18.22	11.99	10.42	5.613	6.039	4.839	5.414	3.315	3.506	3.454	3.986	4.191	3.611	3.289	5.229	4.058	4.874
345.0	335.4	412.5	476.3	556.1	727.7	958.4	 1119	 1158	884.4	709.7	525.3	634.1	559.3	614.5	744.2	806.6	856.6	853.5	782.5	586.8	525.4	548.9	710.2	387.9	232.6	200.0	198.9	723.0	 9822	9999.9	9999.9	838.4	47.63	33.69	22.61	18.55	10.48	8.290	6.447	5.452	4.998	4.583	3.683	4.895	3.730	3.551	4.549	3.541	4.467	3.664	4.855
350.0	366.6	480.7	502.3	547.3	676.5	901.9	 1118	 1110	940.6	786.8	630.4	644.5	638.5	685.2	765.2	814.8	915.4	911.5	830.7	683.8	587.9	492.5	621.0	661.9	359.5	267.0	207.2	200.9	739.1	 9402	9999.9	9999.9	853.2	48.53	35.44	24.13	18.22	11.61	7.415	8.909	4.922	5.186	4.953	5.316	3.709	4.615	3.847	3.691	3.987	5.241	4.663
355.0	321.1	337.2	379.7	436.7	667.4	984.5	 1147	 1041	 1051	880.7	786.8	749.0	772.7	799.9	886.7	917.3	981.7	951.5	846.3	792.8	672.9	594.6	571.1	684.5	671.6	383.6	288.0	249.7	223.4	719.6	 8684	9999.9	9999.9	892.8	51.82	33.59	23.83	19.20	12.75	7.053	6.861	5.599	3.743	3.863	5.631	4.545	3.566	4.219	4.619	4.895	4.709
360.0	278.1	363.6	496.5	603.2	680.1	846.2	 1123	 1090	 1046	978.7	869.4	811.8	895.0	931.7	984.9	 1020	 1030	990.0	937.6	838.3	748.4	663.7	638.8	609.8	778.8	657.8	410.0	324.1	255.7	222.5	673.0	 9208	9999.9	9999.9	874.6	48.88	32.02	23.80	17.35	11.63	7.074	6.741	5.524	4.874	3.855	3.715	3.992	6.222	4.240	4.607	4.969
365.0	302.4	408.7	517.9	596.6	614.2	758.7	 1001	 1035	 1051	998.2	928.5	897.6	950.5	 1049	 1097	 1089	 1052	 1043	998.4	915.0	794.9	763.8	724.5	693.0	697.2	841.9	657.5	431.4	344.2	269.1	225.8	698.5	 8503	9999.9	9999.9	890.1	42.31	27.07	22.51	17.68	10.68	9.136	7.167	4.962	4.791	5.169	4.793	4.701	4.719	4.873	4.458
370.0	276.6	453.5	522.5	479.7	672.1	924.8	 1099	 1086	 1109	 1040	 1024	989.7	991.4	 1200	 1157	 1139	 1109	 1068	 1021	919.7	900.6	848.9	802.8	767.5	743.5	790.2	876.2	614.0	426.0	357.0	271.7	223.0	657.6	 8540	9999.9	9999.9	876.4	48.67	28.34	19.56	15.61	10.24	7.753	7.085	5.452	7.120	5.431	4.170	4.736	5.170	4.382
375.0	253.6	411.1	426.6	614.4	758.8	870.5	 1091	 1132	 1094	 1080	 1014	 1092	 1073	 1164	 1257	 1231	 1128	 1100	 1068	973.6	920.8	935.5	886.0	873.4	839.4	807.3	870.1	883.9	578.6	445.9	338.8	257.5	202.7	654.4	 8552	9999.9	9999.9	939.4	40.29	29.50	18.55	14.52	9.151	8.453	7.420	6.664	4.478	4.863	5.878	5.134	4.894
380.0	312.7	443.6	548.5	588.5	811.6	 1011	 1156	 1105	 1158	 1163	 1106	 1120	 1160	 1179	 1280	 1227	 1149	 1121	 1076	995.4	988.0	993.5	988.0	949.9	939.5	882.0	862.6	920.8	815.0	551.0	433.1	310.4	238.0	202.3	653.8	 7874	9999.9	9999.9	811.7	42.37	26.16	18.91	12.94	9.563	7.868	6.791	6.348	4.669	5.306	4.540	5.671
385.0	320.1	386.1	570.6	635.9	872.4	936.3	 1086	 1162	 1197	 1192	 1086	 1154	 1194	 1233	 1357	 1284	 1219	 1164	 1097	 1050	 1062	 1034	 1023	 1025	987.7	954.3	927.5	865.6	951.0	776.5	512.4	399.2	313.4	237.2	201.5	611.7	 6721	9999.9	9999.9	825.8	35.68	25.45	17.39	15.02	9.316	7.859	7.064	7.978	4.380	5.986	5.682
390.0	231.5	390.2	553.2	619.6	785.8	982.7	 1116	 1146	 1200	 1174	 1144	 1158	 1268	 1304	 1329	 1277	 1247	 1200	 1116	 1059	 1030	 1064	 1038	 1056	 1041	 1046	982.7	934.7	896.6	940.4	704.6	496.8	402.9	312.8	244.6	204.0	538.0	 6331	9999.9	9999.9	792.8	35.34	26.59	17.39	10.93	9.304	7.260	7.652	5.660	5.267	6.252
395.0	288.0	372.6	513.7	632.9	855.9	983.2	 1090	 1212	 1196	 1157	 1293	 1206	 1275	 1336	 1322	 1333	 1242	 1278	 1193	 1103	 1110	 1091	 1088	 1099	 1102	 1100	 1091	 1012	912.5	907.2	887.0	650.9	512.9	427.2	331.0	245.1	189.3	515.7	 6023	9999.9	9999.9	799.3	36.57	22.62	15.70	13.77	9.024	8.805	6.975	5.619	6.981
400.0	371.1	436.4	481.9	689.1	908.4	 1031	 1130	 1189	 1177	 1175	 1279	 1312	 1311	 1355	 1316	 1354	 1258	 1243	 1168	 1098	 1106	 1099	 1144	 1159	 1148	 1128	 1126	 1074	 1013	927.2	929.8	871.9	625.6	504.4	415.0	315.3	235.9	194.3	487.8	 6297	9999.9	9999.9	720.7	29.22	20.65	15.44	10.35	9.879	7.872	7.462	5.857
405.0	286.8	459.3	607.8	795.9	941.6	 1131	 1154	 1275	 1263	 1239	 1275	 1210	 1337	 1411	 1314	 1356	 1302	 1287	 1214	 1119	 1125	 1086	 1179	 1168	 1173	 1178	 1171	 1134	 1068	976.1	932.3	930.9	828.0	610.5	502.6	388.7	278.9	211.8	181.4	499.2	 5114	9999.9	9999.9	626.4	27.67	20.23	13.08	11.13	8.270	8.539	5.772
410.0	213.9	467.4	639.6	807.1	911.6	993.2	 1158	 1226	 1184	 1282	 1303	 1286	 1386	 1348	 1352	 1350	 1301	 1261	 1169	 1155	 1118	 1116	 1135	 1135	 1188	 1163	 1192	 1150	 1124	 1041	965.7	894.5	915.4	761.3	569.1	472.2	359.0	267.1	192.9	167.3	416.4	 5235	9999.9	9999.9	588.8	28.90	16.81	14.27	11.24	9.411	8.628
415.0	280.3	465.9	690.1	746.5	906.2	 1109	 1149	 1278	 1257	 1201	 1224	 1198	 1366	 1310	 1386	 1375	 1297	 1254	 1205	 1124	 1107	 1078	 1130	 1122	 1148	 1192	 1226	 1147	 1133	 1080	997.1	915.0	923.5	896.3	702.6	519.5	412.4	313.1	234.4	176.3	139.8	412.1	 4859	9999.9	9999.9	627.7	24.36	19.10	13.70	11.77	8.838
420.0	377.7	415.9	744.2	686.2	913.6	 1015	 1081	 1179	 1231	 1250	 1230	 1282	 1313	 1338	 1337	 1355	 1289	 1253	 1184	 1087	 1076	 1043	 1083	 1102	 1155	 1168	 1174	 1142	 1124	 1099	 1035	951.1	905.6	889.8	837.7	618.5	477.4	352.2	276.0	215.3	148.8	120.3	385.8	 4729	9999.9	9999.9	523.8	26.06	19.37	14.19	10.03
425.0	385.7	385.5	541.6	730.1	887.8	951.0	 1036	 1169	 1216	 1195	 1203	 1304	 1384	 1315	 1355	 1359	 1253	 1198	 1149	 1095	 1037	 1055	 1075	 1095	 1093	 1153	 1141	 1135	 1138	 1097	 1038	989.3	941.9	863.5	870.1	741.1	536.8	406.1	311.4	245.1	178.2	127.3	118.8	365.8	 4311	9999.9	9999.9	447.3	26.89	18.75	11.99
430.0	250.6	424.0	555.5	584.4	710.3	927.1	982.4	 1104	 1136	 1156	 1070	 1241	 1322	 1362	 1348	 1320	 1244	 1244	 1120	 1039	 1021	 1004	 1042	 1053	 1072	 1119	 1131	 1111	 1106	 1079	 1045	997.4	943.2	885.9	835.2	791.1	646.2	464.5	343.3	278.4	225.2	163.2	122.7	110.7	340.5	 4103	9999.9	9999.9	411.4	25.40	16.69
435.0	342.9	430.1	573.0	654.0	825.1	900.7	 1011	 1006	 1176	 1226	 1199	 1219	 1324	 1309	 1352	 1279	 1252	 1201	 1118	 1035	 1002	998.5	 1009	 1016	 1056	 1069	 1096	 1089	 1100	 1070	 1046	992.2	962.5	887.6	826.5	778.3	714.4	551.6	407.1	326.3	241.3	192.2	148.0	114.9	97.01	317.8	 4117	9999.9	9999.9	416.8	22.26
440.0	308.0	369.5	449.4	648.2	724.5	958.0	 1036	993.1	 1105	 1149	 1175	 1228	 1264	 1303	 1356	 1254	 1229	 1144	 1089	990.9	954.6	947.1	963.7	973.1	 1011	 1022	 1022	 1082	 1046	 1018	 1020	985.8	964.0	904.7	845.6	727.1	700.1	599.6	455.4	359.1	280.3	220.7	175.4	141.9	102.0	100.7	317.8	 4047	9999.9	9999.9	361.1
445.0	281.9	460.9	370.2	533.1	695.1	872.9	994.5	952.9	 1029	 1137	 1183	 1189	 1296	 1297	 1324	 1311	 1245	 1167	 1077	971.7	932.8	925.1	907.6	957.1	961.6	986.5	 1002	 1027	988.3	 1010	995.1	978.7	948.7	881.3	833.7	719.9	660.0	594.4	515.2	392.8	312.3	248.9	203.8	159.2	134.2	98.71	95.27	312.4	 4118	9999.9	9999.9
450.0	306.5	377.0	529.1	617.7	595.0	857.2	959.0	 1031	 1054	 1036	 1159	 1168	 1242	 1246	 1201	 1225	 1184	 1091	 1013	925.6	893.6	866.4	892.4	880.4	908.1	932.9	961.4	967.4	936.3	946.2	927.0	910.2	934.0	854.5	836.4	752.7	647.8	569.9	556.6	455.4	342.5	278.6	224.2	187.6	154.2	121.3	86.72	90.04	315.5	 3883	9999.9
455.0	237.9	405.1	557.6	524.0	544.2	741.1	865.8	 1011	990.7	983.7	 1115	 1110	 1184	 1208	 1221	 1184	 1119	 1062	932.7	878.2	821.2	814.9	824.8	833.8	842.9	868.8	871.8	903.1	932.6	892.7	903.3	870.7	886.7	845.6	787.0	710.2	647.0	545.9	511.7	475.9	387.0	293.8	243.8	209.4	179.3	138.3	110.3	87.03	89.10	301.2	 3883
460.0	254.4	364.6	404.8	540.2	678.8	751.2	753.2	918.5	921.5	936.9	986.6	 1017	 1106	 1173	 1132	 1171	 1081	976.3	926.9	874.1	810.1	785.7	792.5	804.0	799.0	813.4	838.4	846.6	836.5	838.9	866.6	850.4	824.8	815.3	774.1	704.5	618.2	541.7	479.1	462.1	412.6	332.4	253.9	227.9	198.9	160.2	131.1	103.6	77.60	79.61	294.2
465.0	279.0	343.8	336.5	560.0	503.0	704.9	739.1	808.9	834.4	912.2	935.0	 1008	 1089	 1112	 1089	 1104	993.4	958.8	906.5	787.5	761.8	710.6	709.6	747.7	736.3	750.8	743.8	763.8	772.8	793.0	799.0	764.1	767.5	765.3	721.9	664.4	594.1	532.3	476.9	432.1	411.9	370.0	293.2	243.9	205.1	177.1	153.6	117.4	95.91	78.63	83.39
470.0	232.5	263.9	391.7	473.4	504.2	577.4	713.1	755.4	783.4	867.0	876.8	932.0	 1012	 1036	 1043	 1009	987.6	923.5	816.6	768.2	692.4	682.8	676.3	668.7	674.5	648.2	708.4	694.6	719.0	718.3	726.6	724.3	715.6	692.1	704.5	644.2	575.8	510.1	459.0	410.2	365.3	364.9	322.2	257.0	223.0	192.1	159.0	134.0	108.7	85.97	70.60
475.0	236.9	336.4	389.7	407.2	495.9	521.4	618.4	690.8	673.3	838.3	880.4	829.8	903.7	929.3	958.8	940.7	896.2	817.4	776.5	704.8	657.8	647.6	611.1	612.0	611.9	614.6	636.7	658.5	659.1	648.9	658.0	649.4	652.1	644.4	633.9	592.9	548.5	478.1	441.4	400.5	345.7	336.6	331.0	279.0	227.5	190.4	166.0	142.0	121.9	94.30	72.12
480.0	203.8	276.8	374.7	416.5	456.3	491.3	585.4	617.5	634.2	726.4	759.7	844.1	822.6	867.0	908.1	891.4	876.1	788.9	718.3	630.1	615.0	580.0	562.8	570.2	588.3	567.4	603.8	596.5	608.0	602.2	619.1	595.7	618.6	603.9	605.4	569.5	522.6	467.9	422.4	377.3	348.8	317.6	309.8	294.1	233.7	196.6	170.7	147.1	127.5	102.1	83.00
485.0	213.7	321.2	304.8	382.6	429.4	453.6	528.3	610.7	690.5	760.8	704.0	765.5	765.1	820.2	831.2	870.3	805.2	736.8	704.1	598.9	561.1	562.7	533.7	520.7	542.0	527.8	546.6	559.8	562.9	542.0	558.0	557.4	554.1	570.8	563.2	532.2	476.1	452.1	413.4	370.9	330.3	293.8	287.4	285.2	265.9	213.7	181.0	154.9	130.0	111.6	94.37
490.0	152.1	278.5	271.7	348.9	404.3	434.2	554.2	534.1	548.2	657.8	702.7	735.0	773.9	754.4	762.2	796.1	729.9	726.1	656.4	598.4	574.7	522.5	507.8	486.7	475.5	484.6	503.6	511.7	518.9	507.4	523.0	533.8	529.6	544.0	519.9	501.6	465.5	420.5	395.3	351.8	327.3	304.9	274.6	263.3	258.6	229.8	182.3	159.3	136.2	117.8	93.89
495.0	224.1	226.8	263.6	329.1	366.8	375.0	518.8	478.9	594.1	608.2	657.1	717.4	691.2	721.2	748.9	792.1	718.5	702.2	600.6	545.2	524.5	476.9	482.5	465.8	455.1	461.7	463.9	470.5	482.0	477.4	485.5	489.1	486.4	507.6	482.2	470.8	445.4	405.2	368.4	336.6	311.5	300.8	273.9	248.9	233.5	236.3	196.4	170.0	137.2	123.3	100.4
500.0	141.3	207.1	225.4	281.7	317.9	481.8	509.3	491.8	517.2	577.9	586.0	615.0	678.8	679.5	689.4	731.2	651.9	622.7	552.7	500.7	454.9	448.1	433.3	428.6	428.7	427.0	422.2	433.8	440.9	442.9	448.0	449.7	451.6	457.3	455.4	427.6	414.0	373.7	345.1	325.2	307.8	279.8	251.4	236.5	220.9	222.2	213.3	167.7	141.3	120.4	109.1
505.0	128.0	184.8	228.9	303.8	283.3	408.9	482.0	417.7	469.9	552.3	511.9	594.2	656.7	647.2	655.1	644.9	606.2	582.2	518.8	479.4	424.2	413.9	396.2	402.1	387.8	383.4	383.9	390.5	389.3	402.6	412.1	419.7	412.9	413.1	408.4	388.9	365.0	336.7	323.3	308.3	274.0	257.9	244.7	224.2	218.6	195.1	205.3	180.9	150.1	124.5	110.8
510.0	109.4	162.0	219.1	212.9	247.1	278.8	418.8	342.1	452.1	496.0	445.4	526.2	591.0	572.9	579.8	574.8	523.1	521.3	492.2	433.7	389.5	383.1	361.7	365.4	355.9	334.6	344.3	349.4	349.2	354.1	352.9	368.2	372.5	387.2	378.6	359.9	350.5	319.0	290.4	280.4	259.0	243.5	218.6	210.8	191.2	183.5	172.6	173.4	150.0	121.1	105.4
515.0	131.3	234.8	214.5	257.0	277.2	322.0	319.0	342.6	402.9	468.9	451.2	476.1	509.0	546.3	531.4	527.5	523.8	495.9	423.1	386.0	367.7	334.8	331.5	319.7	314.4	331.4	321.1	322.9	329.9	322.8	304.1	349.2	330.0	336.8	346.5	313.5	314.2	292.5	264.3	258.3	239.0	219.5	212.7	198.5	186.8	176.0	160.6	157.7	158.2	125.4	101.6
520.0	162.7	105.9	207.5	163.9	205.3	265.5	304.2	294.9	350.4	397.0	376.1	447.4	469.2	518.9	508.2	487.9	448.5	431.1	383.5	352.9	322.1	312.3	299.1	276.5	286.9	303.1	283.1	278.4	292.6	279.2	283.4	277.8	295.2	298.7	313.3	288.6	278.5	261.4	255.5	239.6	214.1	208.5	198.2	187.2	177.4	171.0	146.6	134.8	142.0	128.9	106.7
525.0	105.3	146.7	171.3	188.4	224.8	229.8	281.1	332.9	331.8	381.7	395.8	371.9	422.9	451.3	452.2	469.0	451.6	377.4	357.8	327.2	287.0	269.8	277.3	250.1	253.6	256.3	257.8	250.0	252.3	253.6	262.3	269.0	257.6	274.1	274.7	277.0	253.9	241.2	223.7	219.2	199.2	185.9	176.6	171.3	158.6	149.1	139.2	122.2	126.2	124.6	114.4
530.0	76.48	92.04	174.6	148.0	197.3	275.6	268.0	281.5	284.7	329.3	362.0	344.0	394.9	397.8	407.9	415.5	394.2	367.4	320.4	292.2	262.4	265.0	258.4	250.0	240.7	223.8	226.4	220.1	226.3	222.7	232.7	242.0	235.7	242.6	246.4	237.7	220.0	206.5	206.6	188.5	185.8	173.2	166.2	152.0	140.6	133.7	124.1	116.7	107.7	112.2	112.8
535.0	116.1	128.2	121.7	139.4	158.8	234.0	242.0	244.5	279.1	333.3	253.4	312.8	353.0	364.9	373.5	372.8	339.0	339.3	294.4	273.2	251.5	241.1	227.2	219.3	216.4	190.1	200.0	194.9	203.1	207.6	209.5	206.5	222.3	220.4	220.3	223.2	197.2	192.7	178.9	175.1	164.6	155.6	145.2	143.8	132.2	125.3	117.3	109.3	96.96	94.58	97.23
540.0	77.22	124.1	164.1	127.3	147.0	201.0	179.8	201.5	234.3	244.1	222.8	321.7	314.0	319.6	381.4	347.9	320.6	282.2	255.3	250.6	213.0	216.8	193.5	197.3	193.3	182.3	178.6	192.5	180.7	176.9	179.7	179.4	189.0	193.3	196.1	190.7	184.5	168.1	162.4	151.3	151.0	140.4	136.8	129.1	120.3	113.8	111.3	104.3	91.32	92.68	82.70
545.0	104.8	99.87	124.2	114.8	159.8	133.4	213.9	204.9	230.7	225.8	226.0	251.0	267.2	270.9	328.3	362.6	308.6	266.2	248.2	217.4	210.2	186.6	180.5	175.8	162.7	163.0	162.7	163.6	158.4	161.6	168.7	151.3	159.0	171.9	168.3	159.5	168.1	150.7	141.5	143.7	128.8	118.1	125.1	115.9	111.4	100.6	98.55	94.52	81.89	82.42	70.03
550.0	98.12	51.91	72.21	153.7	154.9	192.7	148.4	172.3	178.0	229.7	196.1	211.1	241.2	272.3	287.3	495.3	341.9	232.0	226.1	200.8	190.1	173.4	162.6	161.7	153.3	141.5	145.8	142.9	137.4	146.2	153.4	143.6	150.0	162.8	156.8	152.0	141.9	135.6	136.3	118.3	122.4	112.2	108.0	102.2	98.53	95.65	94.80	93.73	79.63	68.05	65.61
