Sample:	'SLABO1-5-5-320
File name:	3P6.FD3
Run Date:	16:16:03, 08/24/2022
Operator:	Administrator
Comment:	'

Instrument
Model:	F-7000 FL Spectrophotometer
Serial Number:	2354-007
ROM Version:	5J14000 06

Instrument Parameters
Measurement type:	3-D Scan
Data mode:	Fluorescence
EX  Start WL:	200.0 nm
EX  End WL:	450.0 nm
EX Sampling Interval:	5.0 nm
EM  Start WL:	280.0 nm
EM  End WL:	550.0 nm
EM Sampling Interval:	5.0 nm
Scan speed:	12000 nm/min
EX Slit:	5.0 nm
EM Slit:	5.0 nm
PMT Voltage:	700 V
Response:	Auto 
Corrected spectra:	Off
Shutter control:	On
Contour interval:	25.000

Peak integration
Integration method:	Rectangular
Sensitivity:	1
Threshold:	1.000

Peaks
No.	ApexEX/EM(nm)	Height(Data)
1	205.0/320.0	765.5
2	205.0/380.0	503.1
3	205.0/465.0	424.1
4	210.0/355.0	472.7
5	210.0/385.0	547.0
6	210.0/525.0	177.1
7	220.0/295.0	920.1
8	220.0/315.0	853.5
9	220.0/470.0	498.9
10	220.0/505.0	348.8
11	225.0/300.0	 1029
12	225.0/325.0	734.1
13	225.0/435.0	832.7
14	225.0/495.0	386.2
15	225.0/525.0	217.5
16	225.0/545.0	154.7
17	230.0/345.0	847.3
18	230.0/360.0	746.3
19	230.0/380.0	803.0
20	230.0/430.0	920.6
21	235.0/385.0	865.9
22	235.0/415.0	899.3
23	235.0/545.0	160.9
24	240.0/375.0	762.1
25	240.0/430.0	922.5
26	240.0/535.0	235.8
27	245.0/400.0	934.8
28	245.0/420.0	922.0
29	250.0/425.0	935.7
30	250.0/435.0	899.6
31	255.0/325.0	362.2
32	255.0/415.0	961.6
33	260.0/405.0	944.0
34	260.0/420.0	980.5
35	260.0/475.0	691.7
36	265.0/400.0	901.6
37	265.0/430.0	952.3
38	270.0/375.0	731.9
39	270.0/415.0	991.6
40	270.0/440.0	987.9
41	275.0/305.0	743.4
42	275.0/390.0	829.9
43	275.0/405.0	928.6
44	275.0/510.0	449.5
45	280.0/310.0	855.1
46	280.0/330.0	552.6
47	280.0/340.0	568.7
48	280.0/420.0	970.2
49	285.0/315.0	866.6
50	285.0/345.0	591.6
51	285.0/395.0	864.2
52	285.0/410.0	892.8
53	290.0/320.0	754.3
54	295.0/330.0	630.4
55	300.0/335.0	614.4
56	305.0/340.0	595.3
57	310.0/345.0	580.9
58	310.0/410.0	860.1
59	310.0/420.0	859.9
60	315.0/350.0	554.8
61	315.0/405.0	858.8
62	320.0/360.0	641.1
63	320.0/420.0	870.1
64	325.0/365.0	690.7
65	325.0/410.0	876.0
66	330.0/370.0	681.2
67	335.0/375.0	671.1
68	335.0/435.0	813.5
69	340.0/385.0	686.7
70	345.0/390.0	692.4
71	350.0/400.0	680.3
72	355.0/405.0	664.2
73	360.0/410.0	696.1
74	365.0/305.0	13.95
75	365.0/415.0	676.2
76	375.0/295.0	9.750
77	375.0/305.0	12.16
78	390.0/305.0	9.512
79	390.0/325.0	11.31
80	395.0/315.0	10.73
81	405.0/470.0	284.2
82	420.0/330.0	7.485
83	425.0/495.0	186.7
84	430.0/320.0	7.278
85	445.0/350.0	8.253
86	445.0/370.0	8.663
87	445.0/520.0	108.5

Data Points
	200.0	205.0	210.0	215.0	220.0	225.0	230.0	235.0	240.0	245.0	250.0	255.0	260.0	265.0	270.0	275.0	280.0	285.0	290.0	295.0	300.0	305.0	310.0	315.0	320.0	325.0	330.0	335.0	340.0	345.0	350.0	355.0	360.0	365.0	370.0	375.0	380.0	385.0	390.0	395.0	400.0	405.0	410.0	415.0	420.0	425.0	430.0	435.0	440.0	445.0	450.0
280.0	105.2	64.42	98.14	52.90	113.7	96.17	68.03	38.00	19.55	41.24	47.83	87.35	57.45	26.44	22.21	 2204	9999.9	 4458	131.0	20.96	17.70	19.61	13.95	11.30	13.84	8.206	7.744	9.225	6.402	7.843	7.844	5.413	8.204	7.277	6.169	5.218	4.151	3.308	4.287	4.490	2.290	3.209	3.280	3.135	2.494	2.015	3.063	2.344	2.291	2.007	2.426
285.0	441.1	243.3	261.4	298.8	299.9	315.2	202.1	92.83	41.94	97.19	138.4	126.7	207.7	117.2	79.17	199.5	 4964	9999.9	9999.9	850.5	32.62	26.80	24.20	20.49	12.00	11.08	12.34	9.227	8.736	9.103	7.173	6.217	7.240	6.999	7.934	6.180	4.855	5.641	4.846	5.009	4.563	3.291	3.286	3.335	2.858	4.039	2.967	2.955	3.602	3.184	2.072
290.0	837.0	575.1	495.7	563.6	712.6	589.5	393.2	181.3	112.1	128.9	174.9	209.7	239.9	362.8	223.6	129.9	410.6	9999.9	9999.9	9999.9	 1149	47.01	29.33	22.94	21.07	15.40	15.38	12.13	10.07	8.722	9.154	7.582	8.600	7.021	8.139	9.091	6.247	4.619	6.524	4.593	4.828	4.891	4.575	3.967	5.151	3.339	3.541	2.647	4.159	3.856	3.207
295.0	976.1	839.2	662.5	751.5	920.1	917.6	522.7	277.5	167.3	175.0	202.7	222.9	260.4	377.5	500.3	264.7	174.1	767.1	9999.9	9999.9	9999.9	 1379	53.81	42.96	35.63	26.28	18.58	13.81	13.68	11.23	11.76	9.912	7.706	9.218	9.314	9.750	6.930	6.230	5.889	6.351	5.491	5.362	5.421	4.215	4.932	5.287	4.079	4.544	4.427	4.304	4.198
300.0	994.5	798.3	669.3	843.0	907.1	 1029	673.7	370.2	269.6	208.6	254.4	267.4	276.8	322.6	544.6	582.6	289.3	250.3	770.2	9999.9	9999.9	9999.9	 1470	59.38	47.59	37.42	27.59	21.26	14.76	14.92	12.73	10.37	9.809	12.50	8.978	8.111	7.115	8.118	7.937	7.904	6.130	6.727	7.042	5.589	4.984	5.482	5.416	5.650	5.475	4.595	6.024
305.0	 1047	977.9	692.2	806.9	890.3	833.5	652.1	456.9	289.8	255.5	271.4	283.7	281.1	338.0	413.6	743.4	641.4	295.5	216.5	748.8	9999.9	9999.9	9999.9	 1719	76.03	56.33	39.63	28.80	21.30	17.37	14.25	15.99	11.82	13.95	10.42	12.16	10.03	7.345	9.512	9.038	7.934	6.797	6.597	4.960	5.045	6.089	5.886	5.440	6.050	5.028	5.367
310.0	948.4	849.6	654.6	787.1	792.4	816.7	684.2	481.5	338.6	291.0	252.2	301.2	336.9	367.3	395.0	479.1	855.1	527.3	244.8	177.2	758.9	9999.9	9999.9	9999.9	 1767	78.57	56.44	44.52	31.92	20.92	17.72	18.99	16.39	11.83	12.68	11.14	9.015	7.794	7.431	8.448	7.904	7.352	7.118	6.135	5.581	6.167	5.000	6.381	6.312	4.903	6.617
315.0	827.4	629.6	597.7	724.3	853.5	712.2	600.5	429.4	369.7	290.2	322.1	323.8	313.0	349.5	397.9	451.2	562.3	866.6	386.1	175.9	166.2	767.3	9999.9	9999.9	9999.9	 1546	89.09	60.87	46.48	35.89	25.20	22.85	16.98	16.40	11.10	12.77	9.414	9.617	7.460	10.73	6.860	7.391	5.982	4.963	5.469	6.096	4.768	6.212	5.115	6.326	4.604
320.0	707.8	765.5	532.5	528.5	656.7	689.3	607.0	530.2	333.5	289.9	344.5	337.1	325.4	368.7	431.2	459.8	472.1	618.1	754.3	281.7	152.5	162.4	768.0	9999.9	9999.9	9999.9	 1535	89.47	63.92	52.70	40.05	28.70	21.94	18.86	15.88	12.02	9.906	10.89	10.98	7.852	7.321	8.055	7.250	5.647	6.883	6.575	7.278	6.239	4.810	5.182	4.872
325.0	536.3	664.7	487.9	718.0	573.0	734.1	704.7	586.2	377.0	359.5	349.0	362.2	334.0	391.4	415.1	507.5	498.0	477.1	666.2	618.4	235.3	148.4	169.9	777.1	9999.9	9999.9	9999.9	 1643	95.56	69.00	53.32	43.45	27.45	21.76	19.14	14.91	12.79	9.606	11.31	8.185	8.293	7.422	7.144	6.590	7.199	4.876	6.726	6.903	5.184	5.552	6.303
330.0	526.5	615.4	500.0	574.6	551.9	627.6	745.2	655.7	438.5	385.4	333.4	343.7	352.8	403.3	478.8	507.5	552.6	532.4	441.8	630.4	518.9	195.8	137.8	164.8	772.7	9999.9	9999.9	9999.9	 1629	104.4	78.50	52.08	41.16	32.28	22.15	18.25	12.01	13.19	9.235	9.122	8.166	8.542	5.712	6.586	7.485	6.089	6.931	6.510	6.778	5.431	6.760
335.0	416.8	597.8	506.2	426.8	582.3	715.9	731.8	694.9	516.1	412.0	329.4	339.5	370.3	419.5	487.9	517.2	529.3	524.8	436.6	402.2	614.4	422.9	174.9	145.4	166.4	769.3	9999.9	9999.9	9999.9	 1692	103.4	74.29	62.85	44.55	32.04	24.35	18.55	15.57	11.38	8.629	8.603	8.151	8.186	6.735	7.066	5.711	6.211	6.114	6.727	5.756	5.500
340.0	370.6	397.7	491.1	499.0	622.3	721.6	842.5	688.4	506.8	408.9	364.6	404.0	384.5	432.9	483.7	531.6	568.7	562.2	486.7	361.7	394.5	595.3	336.4	176.1	148.0	165.5	768.2	9999.9	9999.9	9999.9	 1892	113.6	82.79	64.26	47.12	30.36	21.36	15.83	12.24	11.03	9.098	9.425	9.086	7.190	6.447	6.548	6.048	6.655	6.233	6.412	5.841
345.0	368.1	284.8	370.8	477.3	607.2	708.6	847.3	792.3	575.2	438.8	395.3	420.0	411.8	439.8	481.1	547.9	564.3	591.6	550.9	422.7	354.8	414.9	580.9	310.0	183.4	155.7	171.8	767.8	9999.9	9999.9	9999.9	 2043	120.7	89.53	68.03	45.81	29.38	21.45	16.26	10.82	11.30	9.545	7.839	6.805	8.412	7.338	6.886	7.015	5.015	6.918	6.239
350.0	324.4	391.3	374.1	362.7	584.1	708.2	708.9	630.5	573.1	540.3	458.8	456.1	435.4	445.7	524.7	524.8	562.9	580.7	548.0	461.3	399.9	347.3	478.0	554.8	292.2	184.8	181.8	177.0	787.8	9999.9	9999.9	9999.9	 2073	119.4	85.64	61.41	42.70	28.59	19.95	14.19	11.05	10.50	8.745	9.899	7.941	6.706	7.582	5.329	5.240	8.253	6.672
355.0	293.5	428.7	472.7	429.1	577.8	667.8	643.9	694.5	697.5	533.8	523.9	487.5	512.2	503.8	540.0	625.6	614.2	590.6	564.7	498.9	467.3	386.9	394.6	534.0	542.8	287.3	229.1	189.0	195.8	769.8	9999.9	9999.9	9999.9	 2257	117.6	83.86	55.49	40.30	26.86	19.58	14.48	13.39	8.968	8.925	9.280	6.160	7.970	6.665	6.750	6.668	6.490
360.0	357.9	419.1	444.0	478.1	534.9	642.1	746.3	716.1	678.2	596.7	575.9	522.9	529.7	542.8	609.9	589.8	658.4	655.3	610.2	544.3	513.1	468.0	432.5	432.3	641.1	522.1	302.6	243.0	196.3	196.7	780.9	9999.9	9999.9	9999.9	 2052	123.2	78.38	57.24	37.37	25.11	18.02	17.20	10.87	9.742	9.601	7.651	7.011	7.455	6.310	6.820	5.561
365.0	388.6	303.2	452.2	475.8	497.2	612.1	688.2	723.9	721.1	646.2	598.7	609.1	574.9	581.1	628.7	676.1	665.5	686.2	625.9	600.1	537.3	521.1	503.6	464.1	511.2	690.7	472.6	311.2	241.4	202.1	194.7	776.5	9999.9	9999.9	9999.9	 2240	115.3	80.07	55.30	39.27	27.03	20.43	14.19	13.06	9.584	7.281	8.239	6.200	6.130	5.847	6.268
370.0	415.1	463.3	428.0	534.2	483.2	600.7	721.8	749.3	692.9	702.7	686.0	631.5	610.5	652.4	641.5	727.1	678.7	674.1	681.0	612.5	582.9	579.5	571.6	546.5	522.9	583.3	681.2	454.5	302.0	248.9	214.3	199.0	770.6	9999.9	9999.9	9999.9	 2142	110.5	75.25	48.76	34.07	26.47	18.09	13.17	9.980	9.638	7.715	6.747	6.986	8.663	5.728
375.0	338.7	484.1	451.9	488.1	607.8	693.8	663.1	755.4	762.1	703.2	731.3	653.0	632.6	717.7	731.9	721.3	760.1	735.9	721.2	658.0	663.9	634.4	616.2	587.9	586.4	557.9	642.8	671.1	431.0	313.3	255.0	181.3	188.8	768.3	9999.9	9999.9	9999.9	 2277	102.6	72.92	47.95	34.80	22.19	18.60	14.49	10.56	10.38	8.306	7.358	5.520	6.511
380.0	314.7	503.1	464.8	494.0	616.2	671.6	803.0	758.2	723.7	770.5	741.7	747.0	692.1	722.1	729.3	774.2	776.5	752.3	699.9	702.7	679.6	676.9	689.1	644.7	627.3	590.8	594.2	660.0	614.9	390.0	296.9	235.9	188.6	192.3	772.7	9999.9	9999.9	9999.9	 2066	94.77	65.67	44.85	33.57	20.76	15.30	12.90	10.20	8.820	7.532	7.344	7.702
385.0	308.4	484.0	547.0	500.4	611.9	674.2	778.3	865.9	819.3	781.9	754.8	756.7	722.7	778.9	716.9	815.7	805.9	783.1	738.3	740.7	731.9	709.3	723.6	704.0	698.7	658.5	612.8	597.5	686.7	564.2	359.1	290.6	239.2	189.5	191.3	767.6	9999.9	9999.9	9999.9	 2168	88.36	61.45	40.68	31.53	20.09	14.29	15.29	9.162	8.541	8.749	7.535
390.0	341.5	377.2	432.1	540.1	714.6	714.7	778.0	809.5	795.3	821.5	820.3	743.2	764.9	828.9	767.1	829.9	819.8	789.9	804.9	761.6	762.9	769.3	761.9	752.0	746.1	692.2	677.2	622.6	612.6	692.4	511.0	352.3	279.4	240.4	187.6	191.7	753.3	9999.9	9999.9	9999.9	 2005	85.74	56.03	44.27	31.64	20.72	15.92	11.92	8.833	8.403	7.636
395.0	336.6	428.4	547.9	580.2	593.7	792.0	771.6	824.2	881.8	869.4	866.5	803.8	804.3	840.0	860.5	812.7	817.4	864.2	791.9	777.4	797.6	794.5	835.1	790.4	761.8	748.8	748.2	683.0	629.3	644.8	677.0	460.8	347.5	294.2	232.0	187.1	186.7	752.4	9999.9	9999.9	9999.9	 1999	82.04	59.01	37.30	28.38	19.44	13.28	13.59	10.59	6.544
400.0	285.9	316.0	508.2	601.0	578.1	767.4	760.9	865.1	891.1	934.8	877.7	802.6	842.8	901.6	891.5	860.2	856.3	838.1	835.2	816.4	819.2	819.4	836.2	822.2	817.8	802.6	777.8	734.7	687.2	652.7	680.3	641.3	453.4	353.7	285.8	230.5	178.1	187.3	748.2	9999.9	9999.9	9999.9	 1789	77.20	49.58	31.62	26.00	16.43	14.01	12.43	10.88
405.0	363.1	401.8	546.6	623.9	595.6	739.9	782.3	844.4	810.0	918.5	836.1	827.4	944.0	893.8	872.0	928.6	864.8	868.4	869.1	862.8	837.6	828.4	849.4	858.8	855.6	811.6	813.9	793.6	719.6	679.5	623.6	664.2	595.9	433.8	349.1	270.4	212.6	162.1	175.6	740.5	9999.9	9999.9	9999.9	 1610	65.25	48.69	33.36	23.61	16.07	12.63	11.68
410.0	321.9	406.2	578.0	688.6	739.1	722.6	808.9	898.5	898.5	880.7	883.0	927.3	894.2	868.8	896.7	882.0	884.2	892.8	872.9	864.7	842.5	844.4	860.1	855.0	845.9	876.0	835.6	825.6	754.4	726.8	660.2	636.2	696.1	557.7	423.2	325.5	237.9	196.8	154.2	153.2	721.5	9999.9	9999.9	9999.9	 1447	66.39	44.82	28.95	24.03	18.64	13.81
415.0	307.5	375.4	490.0	556.8	672.6	748.0	843.5	899.3	852.8	916.5	946.4	961.6	951.4	909.9	991.6	923.7	950.3	876.5	863.0	863.8	838.1	817.5	854.8	856.7	856.1	866.7	836.7	840.9	806.0	732.1	694.7	652.7	655.7	676.2	516.7	384.3	287.4	226.4	176.5	127.4	145.3	716.2	9999.9	9999.9	9999.9	 1465	62.82	42.92	30.29	22.69	17.28
420.0	321.8	401.0	440.2	597.1	691.2	679.6	768.7	857.8	793.0	922.0	896.2	903.3	980.5	953.1	964.3	958.2	970.2	889.2	872.8	848.1	812.3	836.6	859.9	818.2	870.1	853.7	838.1	807.6	801.1	772.5	726.6	669.0	623.8	643.9	632.8	426.1	337.0	255.0	201.3	159.5	118.5	125.3	708.3	9999.9	9999.9	9999.9	 1351	61.56	38.36	29.24	21.16
425.0	248.4	469.2	503.3	543.9	646.6	711.0	846.2	852.1	865.5	873.8	935.7	891.7	960.8	916.3	922.9	930.9	950.9	877.0	862.4	837.3	830.8	832.5	859.7	843.2	838.4	833.2	830.3	813.0	812.6	781.4	722.1	695.8	650.3	586.6	625.1	555.1	375.8	280.3	230.6	174.3	139.4	105.1	128.0	696.1	9999.9	9999.9	9999.9	 1121	53.78	41.81	26.86
430.0	383.1	496.0	553.5	567.3	615.1	783.3	920.6	854.7	922.5	808.0	858.8	914.2	942.1	952.3	943.8	925.0	882.9	890.5	858.9	811.0	800.1	801.2	802.6	819.4	832.1	803.5	810.7	794.3	763.7	776.4	743.5	701.9	665.4	627.5	580.4	593.9	456.4	328.7	249.8	208.9	160.3	123.7	98.45	119.9	695.2	 9585	9999.9	9999.9	 1033	52.46	35.90
435.0	292.4	437.0	402.0	509.7	647.7	832.7	777.8	835.5	772.2	866.0	899.6	873.0	858.5	927.4	953.6	916.8	910.8	884.9	822.4	811.7	761.0	734.3	797.4	798.2	804.2	786.6	791.2	813.5	771.2	741.5	730.8	708.8	659.1	608.8	553.8	547.2	518.7	387.4	283.2	221.8	182.1	136.8	108.0	86.74	115.4	662.4	 9588	9999.9	9999.9	959.1	50.00
440.0	298.3	299.1	471.3	418.2	603.0	688.3	779.5	808.2	818.8	853.1	814.5	877.2	885.1	932.6	987.9	904.2	880.0	877.0	810.2	784.6	729.6	737.9	778.9	737.5	779.5	762.3	763.7	761.5	752.5	735.4	703.5	684.7	668.9	625.0	557.8	510.2	486.3	456.0	329.5	243.9	206.4	159.5	122.8	104.9	86.83	112.6	666.8	 9352	9999.9	9999.9	857.9
445.0	278.7	393.0	406.6	485.1	533.6	696.1	691.4	719.0	761.9	863.2	858.8	824.9	855.2	899.8	922.3	884.3	858.9	853.6	779.9	765.6	699.0	703.5	723.0	719.8	725.3	731.0	738.6	720.1	751.2	725.4	698.7	662.9	655.0	614.6	567.6	522.0	464.9	445.9	383.5	280.3	223.1	184.1	148.4	114.9	99.74	84.89	111.6	650.9	 9528	9999.9	9999.9
450.0	227.9	309.8	354.3	536.2	462.3	628.6	660.0	714.6	718.1	791.4	796.6	852.2	851.6	884.9	846.6	849.7	843.7	776.9	727.1	730.8	701.5	658.3	684.6	674.0	690.5	709.1	704.9	695.6	707.0	677.6	639.5	645.1	635.4	612.7	556.0	501.6	447.3	409.0	408.3	333.9	243.3	204.9	166.2	141.8	108.0	95.66	84.38	103.6	660.0	 9375	9999.9
455.0	345.0	283.7	328.9	428.1	522.1	622.8	665.3	605.2	698.1	738.6	756.4	796.7	826.4	883.0	825.9	831.1	837.9	787.6	698.9	693.3	667.9	639.2	630.4	630.0	647.1	651.1	665.0	644.1	664.5	642.2	614.9	622.2	611.6	595.1	546.6	505.0	434.3	389.3	371.4	361.2	284.5	211.1	186.8	155.8	128.9	100.5	90.47	76.94	105.8	651.9	 8950
460.0	325.6	343.5	297.2	464.1	485.4	525.6	611.3	682.0	631.5	734.4	734.4	727.7	800.5	796.6	802.1	806.5	801.5	720.9	673.6	637.2	617.3	624.8	603.9	589.3	597.7	618.0	626.1	614.1	643.1	586.6	593.6	584.7	586.2	563.9	533.7	507.9	427.4	387.9	347.2	329.1	319.1	243.4	194.3	169.1	148.7	122.6	101.7	81.17	68.92	98.14	613.7
465.0	240.7	424.1	419.3	389.3	414.7	501.8	557.0	574.4	628.9	663.6	715.5	761.5	737.3	760.2	785.3	821.0	734.2	703.1	673.8	622.8	571.1	555.4	559.4	590.0	553.7	566.0	570.4	552.7	550.3	561.3	556.2	555.9	550.5	517.5	488.0	467.9	414.8	380.2	336.8	302.8	306.9	281.7	214.2	179.7	151.8	138.5	114.2	94.74	75.42	65.32	89.67
470.0	303.6	322.3	318.9	385.7	498.9	458.6	498.4	550.3	558.3	627.3	632.9	660.5	649.8	740.6	721.4	732.3	669.7	676.8	616.9	578.3	521.3	529.4	517.1	515.0	513.0	521.2	515.1	535.6	533.1	531.6	503.8	515.1	510.0	494.5	472.6	451.6	396.8	363.8	331.3	282.0	269.1	284.2	236.9	188.4	159.6	141.3	117.2	91.71	81.37	65.13	60.08
475.0	228.0	205.5	353.1	309.7	403.8	404.4	449.8	514.7	542.4	513.2	624.3	632.6	691.7	673.2	684.9	678.9	675.4	592.8	563.0	544.0	488.9	473.0	469.3	462.7	468.3	482.2	467.6	467.7	473.8	473.5	473.8	483.0	486.9	463.6	433.8	419.7	370.7	340.8	305.3	283.7	257.4	248.7	251.3	201.9	164.7	141.8	122.3	99.34	83.99	71.62	61.06
480.0	214.3	248.0	251.6	276.0	355.8	407.3	445.1	460.8	481.8	516.1	540.0	574.8	639.2	612.5	663.4	633.7	611.6	587.2	521.4	507.6	478.1	435.0	447.0	435.5	433.7	438.9	446.1	439.6	433.0	438.8	439.4	427.6	432.7	439.3	418.5	402.1	373.9	321.8	287.2	268.0	242.2	218.6	229.2	222.3	176.1	143.7	129.1	106.3	88.41	75.81	63.24
485.0	138.4	154.6	278.5	342.2	320.8	366.1	393.6	449.8	517.1	511.1	471.4	557.2	567.0	620.0	597.1	615.7	582.9	533.5	478.6	485.5	415.5	424.7	391.5	416.2	413.2	411.2	408.4	418.1	408.6	404.7	404.7	409.5	416.2	390.2	391.1	363.4	344.2	316.7	273.0	263.3	239.0	218.7	206.4	209.6	196.9	153.5	130.5	111.8	94.37	81.70	68.66
490.0	186.7	222.1	236.5	324.5	307.6	366.8	365.5	453.2	442.3	473.6	452.6	527.9	566.8	579.1	592.1	551.5	510.8	494.6	489.2	435.1	411.9	402.3	383.6	384.8	383.6	375.2	372.3	374.8	382.4	364.8	366.2	371.1	378.1	384.6	368.1	348.7	316.5	304.0	268.2	252.1	232.5	213.0	197.3	188.3	195.9	171.4	130.8	116.2	97.59	83.08	75.54
495.0	109.1	177.5	239.6	249.3	235.7	386.2	329.9	375.1	447.1	459.3	450.7	530.9	482.0	540.6	526.1	524.5	496.9	462.9	456.0	406.0	379.9	368.9	370.2	346.6	347.4	333.2	352.5	348.0	356.0	346.3	348.9	359.3	360.7	352.1	347.3	326.6	297.4	277.1	266.6	240.3	222.6	211.7	192.6	189.3	178.3	186.7	145.7	114.7	100.4	86.58	76.31
500.0	137.7	151.2	179.2	205.5	236.9	347.3	347.1	322.7	374.8	442.2	432.7	434.0	471.2	497.4	506.3	527.9	478.6	463.3	403.1	366.9	339.2	356.6	339.0	322.5	315.0	329.1	318.7	312.3	303.1	325.8	317.8	320.8	307.6	322.6	317.2	301.1	292.1	260.8	249.5	224.8	217.5	199.0	183.0	169.0	157.9	165.7	154.5	127.8	97.72	89.92	73.22
505.0	138.4	149.2	213.8	227.5	348.8	338.8	326.5	331.4	338.4	371.5	396.9	466.6	429.9	436.0	480.3	425.8	459.7	419.4	368.8	342.9	339.4	307.9	299.3	303.8	289.2	295.2	281.1	282.0	281.6	283.0	283.0	301.2	300.2	297.9	285.9	277.1	266.4	252.8	236.4	222.3	198.0	191.9	171.8	157.9	149.5	138.9	152.6	140.2	103.7	92.00	77.45
510.0	149.1	169.4	184.5	240.5	259.2	268.6	291.1	279.4	320.8	368.4	365.0	386.3	410.8	433.3	442.5	449.5	415.0	410.1	344.4	317.1	305.3	299.0	285.4	281.2	272.5	281.7	254.8	257.0	276.2	264.7	257.0	273.1	273.8	279.1	258.8	256.3	235.5	227.2	215.2	187.4	193.1	181.1	165.8	149.0	142.0	130.5	125.4	138.6	117.8	91.54	72.71
515.0	82.75	143.8	119.5	169.5	213.5	235.8	248.9	271.7	296.9	301.6	296.5	360.8	368.7	396.2	394.6	415.1	393.1	347.3	326.2	294.4	262.6	260.9	257.8	248.1	254.7	228.2	233.4	227.0	244.7	232.1	232.9	231.9	237.8	236.5	238.2	219.6	216.5	209.7	197.2	174.6	176.4	166.6	156.5	147.9	137.7	126.5	115.5	113.7	117.3	94.53	74.43
520.0	153.0	148.3	145.1	121.0	222.5	176.4	219.1	245.3	258.8	256.5	304.4	312.6	347.6	352.8	360.0	377.6	348.7	322.1	306.1	262.7	253.8	237.1	227.1	215.7	227.3	210.1	208.9	195.5	214.4	210.1	210.6	218.7	206.9	226.9	215.1	211.5	195.8	188.2	180.0	157.8	159.0	150.2	142.9	128.5	128.0	117.1	110.6	103.7	104.7	108.5	77.52
525.0	147.7	139.7	177.1	139.4	181.4	217.5	190.4	224.6	211.7	272.4	286.2	258.8	313.3	335.7	346.8	353.6	315.1	278.5	264.9	244.8	237.0	216.2	202.3	212.2	193.5	186.4	187.4	184.0	184.5	180.8	196.7	193.6	192.0	206.2	201.2	196.5	171.6	165.7	165.8	146.8	141.8	139.7	132.2	127.5	115.7	104.6	94.04	90.44	93.71	96.42	88.86
530.0	105.2	113.0	132.1	99.37	190.4	210.2	209.1	224.6	227.5	219.2	246.7	266.0	290.3	312.1	322.6	313.3	298.8	278.1	238.5	226.8	206.7	196.6	185.8	175.3	170.8	181.3	167.8	168.4	166.4	171.8	170.7	179.2	170.7	187.6	182.8	169.4	163.7	151.6	142.6	130.8	133.2	121.8	119.0	104.2	106.0	96.89	91.27	87.03	77.32	83.87	92.79
535.0	111.9	109.4	141.7	102.8	174.4	154.3	163.7	187.6	235.8	226.3	205.1	231.9	236.4	281.4	293.0	291.8	275.8	253.4	219.4	208.3	190.7	187.4	177.2	164.4	164.0	161.1	165.4	148.1	154.2	138.2	148.6	151.4	152.3	156.0	157.6	152.4	145.0	141.2	134.2	118.7	111.6	111.9	102.8	103.3	97.33	90.87	89.23	82.65	75.72	78.64	74.04
540.0	102.1	73.93	119.5	126.0	126.9	150.7	156.4	152.2	140.3	177.4	214.9	213.0	226.2	249.9	318.3	283.5	246.1	202.8	208.2	194.0	179.0	168.7	165.7	151.9	163.7	143.1	133.1	137.5	140.3	127.9	143.8	132.5	144.2	145.5	135.3	132.8	131.9	121.0	119.7	110.8	102.3	106.9	102.6	90.09	81.08	82.73	77.26	77.80	68.02	65.49	62.03
545.0	78.66	108.8	119.4	100.8	126.7	154.7	128.7	160.9	129.5	171.0	192.4	198.7	193.3	214.2	318.3	432.6	256.7	191.9	180.5	179.5	168.0	145.5	144.3	134.3	130.4	139.4	128.5	132.3	132.3	124.7	120.1	130.1	123.8	124.9	128.6	124.6	111.4	110.9	104.3	93.56	99.07	96.84	90.29	82.18	78.13	71.40	72.95	65.58	61.88	60.87	58.64
550.0	53.01	87.39	63.67	104.1	113.9	95.35	134.4	154.0	139.4	147.0	173.6	179.3	183.5	205.6	235.8	647.8	340.2	173.4	162.5	163.4	140.8	132.6	130.8	126.2	124.6	125.9	120.4	112.9	110.3	112.4	110.4	115.6	112.1	117.4	118.2	109.8	104.4	99.00	92.46	83.56	88.02	83.49	80.24	75.02	74.59	66.45	66.78	63.57	61.70	57.17	52.36
