Sample:	'SLABO1-5-5-320
File name:	3P7.FD3
Run Date:	16:20:21, 08/24/2022
Operator:	Administrator
Comment:	'

Instrument
Model:	F-7000 FL Spectrophotometer
Serial Number:	2354-007
ROM Version:	5J14000 06

Instrument Parameters
Measurement type:	3-D Scan
Data mode:	Fluorescence
EX  Start WL:	200.0 nm
EX  End WL:	450.0 nm
EX Sampling Interval:	5.0 nm
EM  Start WL:	280.0 nm
EM  End WL:	550.0 nm
EM Sampling Interval:	5.0 nm
Scan speed:	12000 nm/min
EX Slit:	5.0 nm
EM Slit:	5.0 nm
PMT Voltage:	700 V
Response:	Auto 
Corrected spectra:	Off
Shutter control:	On
Contour interval:	25.000

Peak integration
Integration method:	Rectangular
Sensitivity:	1
Threshold:	1.000

Peaks
No.	ApexEX/EM(nm)	Height(Data)
1	205.0/315.0	607.8
2	205.0/330.0	506.7
3	205.0/375.0	441.8
4	205.0/405.0	414.0
5	210.0/515.0	154.7
6	210.0/535.0	98.92
7	215.0/325.0	576.7
8	215.0/445.0	430.3
9	215.0/540.0	127.3
10	220.0/305.0	531.6
11	220.0/520.0	194.3
12	225.0/425.0	622.0
13	225.0/475.0	374.5
14	225.0/515.0	230.7
15	230.0/335.0	929.3
16	230.0/350.0	889.4
17	230.0/385.0	666.7
18	230.0/435.0	683.3
19	230.0/530.0	178.2
20	235.0/365.0	768.7
21	235.0/375.0	744.3
22	235.0/390.0	739.7
23	235.0/400.0	764.9
24	235.0/415.0	711.8
25	240.0/420.0	716.3
26	240.0/500.0	318.5
27	245.0/310.0	270.9
28	245.0/380.0	699.2
29	245.0/395.0	712.2
30	245.0/410.0	732.6
31	250.0/305.0	307.1
32	250.0/415.0	729.8
33	250.0/435.0	670.3
34	250.0/450.0	653.9
35	250.0/485.0	425.7
36	255.0/310.0	303.3
37	255.0/320.0	326.8
38	260.0/315.0	330.4
39	260.0/410.0	702.7
40	260.0/445.0	690.7
41	265.0/425.0	708.3
42	270.0/370.0	636.6
43	270.0/430.0	687.5
44	275.0/305.0	684.9
45	275.0/390.0	667.0
46	275.0/420.0	720.4
47	275.0/435.0	694.5
48	275.0/485.0	460.1
49	280.0/310.0	804.9
50	280.0/340.0	551.9
51	280.0/370.0	624.2
52	280.0/400.0	664.2
53	285.0/315.0	823.1
54	285.0/345.0	553.9
55	285.0/365.0	610.2
56	285.0/380.0	642.6
57	285.0/395.0	661.5
58	285.0/405.0	663.5
59	290.0/320.0	716.7
60	290.0/400.0	650.2
61	300.0/335.0	616.8
62	305.0/340.0	607.6
63	305.0/410.0	612.2
64	310.0/345.0	587.9
65	310.0/400.0	627.9
66	315.0/350.0	535.7
67	320.0/360.0	555.4
68	320.0/415.0	631.0
69	325.0/365.0	591.5
70	330.0/370.0	597.7
71	330.0/420.0	625.8
72	335.0/375.0	590.2
73	340.0/385.0	611.9
74	345.0/390.0	597.5
75	350.0/395.0	582.2
76	355.0/405.0	579.3
77	360.0/410.0	582.9
78	365.0/415.0	557.0
79	370.0/425.0	504.1
80	375.0/430.0	485.7
81	380.0/435.0	432.1
82	395.0/455.0	287.4
83	400.0/305.0	8.567
84	400.0/460.0	262.7
85	410.0/475.0	203.5
86	420.0/300.0	6.168
87	430.0/355.0	7.997
88	430.0/500.0	120.1
89	435.0/295.0	5.125
90	435.0/340.0	6.757
91	435.0/510.0	109.0
92	440.0/345.0	7.132
93	440.0/515.0	93.59
94	445.0/520.0	81.20

Data Points
	200.0	205.0	210.0	215.0	220.0	225.0	230.0	235.0	240.0	245.0	250.0	255.0	260.0	265.0	270.0	275.0	280.0	285.0	290.0	295.0	300.0	305.0	310.0	315.0	320.0	325.0	330.0	335.0	340.0	345.0	350.0	355.0	360.0	365.0	370.0	375.0	380.0	385.0	390.0	395.0	400.0	405.0	410.0	415.0	420.0	425.0	430.0	435.0	440.0	445.0	450.0
280.0	76.18	40.40	51.65	41.12	52.74	48.15	12.26	20.42	28.17	38.40	77.11	86.27	62.93	16.67	19.68	 2225	9999.9	 4908	132.7	20.16	18.06	20.36	17.23	11.67	10.66	8.490	9.684	9.736	8.802	7.218	6.232	6.388	4.751	6.973	5.277	4.504	4.484	4.609	4.393	3.110	3.145	2.726	2.627	2.111	2.385	1.414	1.367	2.040	1.435	1.810	1.459
285.0	226.7	127.6	113.0	144.5	99.58	108.4	99.84	65.37	63.58	92.78	166.5	167.5	184.9	118.3	52.09	182.3	 5222	9999.9	9999.9	880.1	25.81	28.99	26.18	19.85	16.57	10.57	8.537	9.335	6.799	6.602	7.907	7.911	6.238	7.930	7.060	5.471	5.945	4.472	5.254	5.621	4.237	3.021	2.027	2.772	3.093	2.319	2.072	2.306	1.980	1.422	2.188
290.0	349.7	394.2	233.4	275.3	296.3	256.7	136.6	116.5	115.1	155.6	221.9	238.6	211.5	322.9	179.9	107.5	409.4	9999.9	9999.9	9999.9	 1122	41.59	34.21	28.36	22.23	16.91	14.18	13.53	11.20	9.266	7.478	7.596	6.284	6.531	6.460	7.515	6.422	6.744	4.742	5.180	4.989	4.447	3.641	3.464	3.007	3.716	3.745	2.172	2.380	2.476	2.725
295.0	465.7	441.2	359.5	283.3	436.2	346.7	227.7	142.4	141.6	197.4	262.7	244.4	221.5	334.1	432.2	204.5	146.5	746.0	9999.9	9999.9	9999.9	 1369	54.49	44.04	31.16	23.24	17.98	11.88	14.03	11.91	11.10	9.707	8.993	7.774	7.679	7.393	6.477	6.773	7.381	5.607	4.228	4.560	2.845	3.118	3.973	4.439	3.773	5.125	3.931	3.570	2.866
300.0	594.8	486.3	420.3	441.3	377.6	446.5	340.6	232.0	204.9	238.5	265.8	257.0	244.0	237.2	499.0	561.6	251.3	202.5	762.3	9999.9	9999.9	9999.9	 1377	63.15	44.91	37.62	26.17	17.46	16.82	16.61	12.78	11.73	12.34	9.598	8.522	9.898	8.954	6.017	7.385	5.872	5.472	5.674	5.027	4.453	6.168	4.061	4.239	4.831	3.608	3.992	3.094
305.0	518.3	562.5	463.8	491.2	531.6	501.8	411.4	261.2	200.7	240.1	307.1	286.9	265.7	253.1	332.2	684.9	571.6	243.8	211.3	757.9	9999.9	9999.9	9999.9	 1606	69.18	51.51	37.20	30.17	22.31	15.84	13.93	11.17	11.65	9.487	13.47	11.00	8.990	8.535	7.832	7.225	8.567	6.822	6.848	4.691	4.840	5.724	4.316	3.619	4.409	4.312	3.755
310.0	589.4	558.7	515.6	490.0	518.9	468.7	413.9	300.9	236.1	270.9	251.3	303.3	290.6	310.3	317.6	401.8	804.9	477.9	204.2	174.5	758.9	9999.9	9999.9	9999.9	 1631	70.99	56.09	42.21	31.23	27.58	17.76	13.09	14.86	13.63	12.93	10.14	10.67	8.171	8.507	6.376	6.521	5.980	5.535	4.479	5.558	4.740	4.871	3.898	4.267	3.514	4.540
315.0	511.7	607.8	443.2	509.4	465.1	498.0	429.0	342.7	267.3	260.1	283.2	291.0	330.4	307.2	349.9	405.9	513.1	823.1	367.8	158.2	165.2	780.2	9999.9	9999.9	9999.9	 1388	83.94	58.40	44.54	30.65	23.71	22.21	15.52	15.40	13.06	9.235	10.55	9.745	8.490	7.512	8.278	6.291	6.772	5.931	6.004	5.862	4.615	4.533	4.519	3.443	3.601
320.0	432.4	589.5	477.5	508.4	470.9	595.4	531.9	393.4	284.7	270.0	274.6	326.8	295.7	332.9	373.4	414.1	406.6	579.3	716.7	291.6	144.5	171.1	778.7	9999.9	9999.9	9999.9	 1398	87.22	69.77	51.80	34.10	26.21	19.82	16.15	16.02	12.47	12.72	10.05	9.664	8.187	7.719	7.050	6.328	5.836	5.783	5.041	4.929	5.989	4.825	4.605	4.515
325.0	513.9	402.0	493.3	576.7	533.7	671.7	738.9	545.5	349.5	272.0	293.2	326.5	352.0	366.2	424.9	450.6	479.9	425.2	647.3	645.0	229.3	153.6	173.9	774.7	9999.9	9999.9	9999.9	 1499	96.64	65.70	50.35	38.12	25.78	22.95	18.70	13.00	11.37	11.22	9.798	8.105	7.712	6.599	6.529	6.016	5.705	5.914	5.177	5.821	4.990	5.138	6.113
330.0	435.6	506.7	495.5	463.2	575.2	771.9	776.6	625.4	419.1	323.5	302.2	305.3	341.2	377.8	423.6	472.1	495.0	477.8	413.5	625.1	536.2	199.3	156.6	169.4	767.5	9999.9	9999.9	9999.9	 1484	99.09	73.13	56.58	41.73	27.32	22.39	16.98	16.71	13.22	11.09	9.655	8.000	6.762	6.836	7.245	5.787	5.433	5.500	5.515	5.854	6.320	5.380
335.0	374.0	485.1	461.4	452.9	609.0	736.4	929.3	732.6	424.0	346.2	318.3	321.2	328.2	385.5	432.4	502.9	502.1	470.9	408.5	400.4	616.8	434.7	167.0	139.8	163.7	769.8	9999.9	9999.9	9999.9	 1504	99.84	76.95	58.64	37.01	27.65	21.22	15.37	12.22	11.56	8.623	7.449	8.255	7.354	6.906	6.826	5.479	5.189	6.051	5.650	6.043	4.387
340.0	368.0	432.7	398.5	505.7	618.3	762.1	833.1	830.2	542.7	375.7	310.2	313.8	370.4	374.5	466.7	521.3	551.9	521.6	445.0	343.1	377.7	607.6	347.4	160.5	134.5	168.6	759.4	9999.9	9999.9	9999.9	 1664	114.9	78.00	54.98	40.29	25.34	20.45	14.32	12.03	10.61	9.495	8.336	7.645	7.779	7.029	5.607	5.515	6.757	5.403	5.050	6.477
345.0	390.7	384.9	410.8	460.9	572.0	781.8	857.6	733.0	612.9	432.0	353.9	353.4	372.8	435.2	469.2	514.3	521.3	553.9	493.6	375.8	327.5	384.1	587.9	294.3	153.2	140.3	171.2	758.5	9999.9	9999.9	9999.9	 1850	110.3	79.06	56.73	42.78	29.88	20.93	14.87	10.52	9.621	10.54	7.911	6.606	6.293	6.729	7.135	5.737	7.132	6.164	6.365
350.0	363.3	296.6	317.1	472.6	612.4	799.1	889.4	789.4	614.6	457.3	397.3	429.4	424.2	436.5	458.3	502.2	569.5	502.6	488.3	413.5	333.9	318.4	459.0	535.7	248.2	165.5	146.4	167.6	768.0	9999.9	9999.9	9999.9	 1917	117.3	78.45	56.63	40.14	24.59	18.43	15.48	10.86	8.424	7.986	8.288	8.680	5.008	7.008	6.213	6.914	6.498	5.113
355.0	266.8	354.2	327.0	430.3	527.8	692.4	799.0	690.8	591.3	521.8	454.1	437.3	442.9	477.0	492.7	548.8	574.5	553.8	524.5	464.5	415.1	363.2	333.0	486.3	490.1	243.5	188.0	152.6	185.5	760.3	9999.9	9999.9	9999.9	 1965	108.5	78.11	54.97	39.66	27.66	17.07	13.28	11.41	8.561	7.517	6.848	6.360	7.997	5.639	6.373	5.790	6.836
360.0	344.1	382.2	444.0	486.7	494.0	646.5	741.4	746.8	633.8	558.6	523.1	471.2	477.3	517.7	512.0	571.0	581.4	571.5	515.9	473.7	440.2	387.8	368.9	357.5	555.4	429.2	241.5	197.7	166.9	188.6	762.6	9999.9	9999.9	9999.9	 1815	102.7	77.40	52.11	38.80	23.44	16.95	14.11	10.52	8.723	8.195	6.421	6.093	7.486	6.056	6.414	5.779
365.0	335.2	385.4	356.7	461.6	527.9	646.4	764.4	768.7	658.5	615.3	501.9	506.5	520.2	535.2	576.5	598.4	608.7	610.2	564.1	539.0	464.6	434.9	415.1	375.6	416.2	591.5	428.1	252.1	198.8	169.2	176.9	753.5	9999.9	9999.9	9999.9	 2048	107.5	73.38	53.10	36.52	23.14	14.37	12.49	11.00	8.925	7.080	7.447	7.235	5.766	6.811	4.585
370.0	308.4	320.0	412.7	450.9	458.0	568.9	627.2	703.3	646.2	624.5	541.6	550.7	543.2	539.7	636.6	575.3	624.2	587.3	567.6	544.5	500.5	470.6	432.1	416.2	401.1	465.1	597.7	374.9	261.8	198.2	166.0	171.4	752.0	9999.9	9999.9	9999.9	 1949	100.2	72.23	44.68	32.16	21.04	16.52	12.79	11.36	7.762	7.211	7.156	6.275	6.551	5.217
375.0	250.9	441.8	417.6	321.5	543.0	645.6	680.0	744.3	672.1	635.9	649.3	573.3	578.7	599.0	602.4	576.6	593.0	580.4	614.3	558.6	510.3	513.9	483.4	483.3	452.5	440.7	519.3	590.2	351.6	246.5	196.3	160.1	164.8	754.1	9999.9	9999.9	9999.9	 2105	100.9	64.42	47.03	31.91	22.25	16.52	13.73	9.683	8.219	7.554	6.917	6.758	5.349
380.0	268.4	332.9	359.1	468.5	507.3	521.7	612.6	636.2	638.1	699.2	642.4	548.3	574.8	619.6	601.2	659.3	631.7	642.6	625.2	573.2	536.7	516.3	528.5	495.6	485.1	466.8	457.0	575.2	528.4	318.5	252.4	189.6	147.5	157.3	748.7	9999.9	9999.9	9999.9	 1867	86.18	64.81	41.33	31.25	20.85	17.27	14.27	9.684	9.912	6.686	6.635	6.695
385.0	306.4	350.9	418.1	405.0	484.8	552.2	666.7	607.9	649.6	695.7	643.3	644.5	579.1	596.0	613.6	642.8	594.7	622.1	605.4	567.0	566.9	543.8	565.5	528.3	526.3	506.0	497.5	478.3	611.9	473.5	307.7	232.3	198.6	153.2	165.1	747.4	9999.9	9999.9	9999.9	 1929	81.09	57.08	41.46	26.98	18.57	16.87	12.58	9.269	7.960	7.169	6.181
390.0	241.4	318.9	403.6	435.4	503.5	589.7	596.0	739.7	639.5	696.2	623.0	658.8	609.3	616.3	616.6	667.0	632.6	640.9	620.5	578.0	571.4	553.6	574.0	551.1	531.1	554.5	512.7	500.4	505.1	597.5	438.7	286.9	226.9	186.4	161.9	168.0	738.7	9999.9	9999.9	9999.9	 1838	74.94	53.22	35.73	25.94	20.81	13.55	10.45	8.054	7.876	5.504
395.0	293.3	361.9	397.1	396.2	489.1	614.2	604.5	650.4	683.8	712.2	699.4	666.0	665.6	610.9	663.8	665.5	632.4	661.5	606.9	590.7	584.7	588.9	573.4	590.5	561.3	551.8	543.8	534.1	493.0	525.7	582.2	391.2	302.2	223.6	199.1	149.8	154.4	733.9	9999.9	9999.9	9999.9	 1867	76.37	53.63	37.39	24.70	18.72	14.29	9.132	8.558	9.035
400.0	335.7	374.8	402.3	448.1	552.2	616.6	648.6	764.9	673.7	698.3	614.6	656.7	639.6	630.1	637.5	630.6	664.2	624.3	650.2	641.9	607.7	586.7	627.9	596.6	599.2	587.8	586.4	575.9	538.1	495.5	562.4	522.5	375.8	273.8	227.7	178.5	145.0	157.1	724.3	9999.9	9999.9	9999.9	 1639	67.98	49.13	37.41	22.68	17.29	12.14	10.57	8.856
405.0	162.6	414.0	311.2	454.6	460.8	660.7	682.0	701.4	611.2	705.7	686.2	652.3	659.0	634.0	660.4	677.6	649.4	663.5	636.1	613.2	602.0	604.2	598.9	609.4	604.6	611.1	591.5	580.9	561.5	516.9	501.6	579.3	502.8	332.9	281.0	226.5	169.0	143.1	141.2	720.1	9999.9	9999.9	9999.9	 1462	63.21	46.09	29.80	22.88	15.87	11.99	10.63
410.0	225.6	314.5	386.6	443.1	466.8	610.9	650.4	692.6	638.8	732.6	715.7	691.4	702.7	686.1	643.3	699.7	665.4	636.8	619.2	602.6	598.4	612.2	606.1	611.3	611.7	621.2	607.0	610.0	583.4	536.9	494.5	505.2	582.9	463.1	306.5	253.2	203.0	155.4	124.4	134.6	710.4	9999.9	9999.9	9999.9	 1398	62.40	43.87	28.42	22.14	15.83	13.61
415.0	315.8	264.9	405.9	377.6	541.9	573.7	582.3	711.8	639.6	718.4	729.8	660.2	660.4	657.3	663.8	703.6	659.1	657.4	636.0	604.7	600.3	596.6	584.5	605.5	631.0	621.9	606.7	598.1	597.6	543.3	529.2	493.3	513.8	557.0	402.7	295.7	225.3	183.2	135.5	109.6	125.6	701.6	9999.9	9999.9	9999.9	 1406	62.00	39.15	24.38	19.75	14.97
420.0	240.7	333.3	428.1	472.0	523.5	575.4	593.1	644.2	716.3	699.7	668.8	638.8	651.8	668.7	686.4	720.4	658.2	621.1	602.2	596.8	559.5	588.5	580.4	608.5	623.0	605.0	625.8	601.9	593.8	587.3	532.2	504.1	483.4	504.4	502.2	346.9	254.7	210.0	169.9	120.6	103.3	122.0	694.0	9999.9	9999.9	9999.9	 1229	55.94	34.25	27.44	17.25
425.0	277.1	289.9	380.3	442.4	473.6	622.0	574.9	596.9	661.0	632.2	664.2	636.7	705.0	708.3	645.6	650.2	626.5	608.9	600.5	597.4	583.6	574.1	570.2	589.0	598.8	592.8	613.8	596.1	590.7	568.5	535.0	522.7	478.0	452.8	504.1	454.0	295.5	231.1	187.3	134.5	101.7	89.45	111.5	692.0	 9848	9999.9	9999.9	 1044	53.06	34.20	22.98
430.0	247.3	306.6	391.7	453.4	447.2	534.8	611.9	600.7	634.2	635.0	667.3	675.3	677.5	677.2	687.5	684.0	647.1	627.2	621.8	591.2	524.0	548.2	553.3	573.1	577.7	602.0	608.5	600.2	586.9	573.4	543.0	529.2	502.8	460.2	451.1	485.7	372.2	257.2	202.1	161.4	118.0	101.8	76.70	106.8	673.3	 9810	9999.9	9999.9	936.7	50.91	34.18
435.0	224.1	255.6	289.8	358.4	433.2	531.4	683.3	657.2	560.5	621.3	670.3	667.0	666.6	667.8	667.9	694.5	660.3	612.7	590.9	543.7	535.8	537.3	525.9	541.0	547.9	565.0	584.6	583.3	573.4	558.6	534.5	535.1	510.5	476.7	422.2	420.7	432.1	308.7	222.9	172.6	138.6	110.1	89.16	72.00	104.6	675.7	 9031	9999.9	9999.9	940.3	48.06
440.0	185.2	267.1	274.5	381.3	415.3	508.4	509.9	595.5	586.6	593.1	644.2	655.3	674.5	659.7	649.3	617.3	639.8	594.8	571.7	538.6	508.4	525.3	513.5	534.6	531.6	552.8	553.2	555.3	547.7	548.3	528.3	520.0	496.2	452.5	441.0	384.4	398.4	369.4	250.4	183.8	155.3	127.1	102.4	78.85	67.80	102.6	621.7	 8819	9999.9	9999.9	813.5
445.0	226.5	322.2	309.1	430.3	412.8	424.6	559.3	549.9	599.4	603.1	627.4	669.1	690.7	671.4	677.2	647.5	634.5	629.9	529.8	530.7	483.5	503.2	498.2	499.9	507.1	508.0	509.6	530.4	534.9	516.0	522.4	521.5	500.7	461.6	430.4	377.6	334.5	360.4	315.1	217.0	168.8	137.0	113.9	83.60	74.03	67.93	97.67	604.6	 9190	9999.9	9999.9
450.0	200.9	159.5	329.1	370.8	354.5	462.3	546.4	506.8	550.5	523.8	653.9	640.2	626.5	643.9	621.7	624.0	615.3	562.8	521.0	511.5	476.3	455.3	477.7	474.0	471.8	491.0	503.2	504.8	509.7	493.5	500.4	495.9	468.2	445.3	412.7	375.9	332.7	311.2	317.9	261.2	183.1	147.3	117.7	99.99	82.43	70.63	62.42	87.56	626.6	 8535	9999.9
455.0	220.8	235.8	246.0	300.3	283.2	392.9	494.9	459.8	553.2	550.2	606.5	579.8	601.9	657.6	601.0	619.0	614.6	580.3	501.3	501.3	441.5	450.8	436.4	448.4	448.0	463.5	455.9	467.5	468.2	477.8	464.7	457.6	457.0	437.4	416.9	374.5	334.0	296.7	272.8	287.4	219.2	160.2	130.3	112.3	91.91	76.40	62.21	60.15	87.78	581.3	 8508
460.0	207.3	209.1	272.8	339.5	384.9	420.9	428.1	463.5	462.2	507.6	575.8	565.7	601.8	619.0	585.0	596.5	607.2	536.1	491.0	477.0	416.6	432.8	404.5	423.0	408.1	413.5	433.4	436.7	437.3	455.5	446.5	417.4	423.8	404.2	409.3	365.9	319.0	285.4	247.1	255.7	262.7	180.6	144.8	116.2	102.7	81.88	69.45	59.90	54.00	82.75	579.0
465.0	150.5	268.9	273.0	278.3	345.8	393.6	439.1	507.8	439.5	486.9	546.3	551.5	543.7	573.4	551.0	566.2	524.3	509.8	444.4	414.7	415.8	403.5	376.5	408.5	388.3	396.9	373.4	404.5	418.5	403.8	420.4	399.5	400.1	394.5	381.8	343.4	318.4	280.1	237.2	228.7	242.3	218.1	153.3	119.6	105.1	93.80	79.88	67.65	61.91	52.77	77.61
470.0	226.7	218.8	274.4	328.2	354.6	315.2	384.7	415.3	432.7	412.0	495.1	496.6	522.4	541.8	531.4	498.2	474.5	462.3	423.1	419.8	360.7	364.1	356.3	359.5	356.3	361.1	366.3	366.1	377.9	374.2	381.3	386.6	367.9	361.8	358.2	334.4	301.6	262.1	237.1	212.3	206.4	211.4	185.0	135.6	111.4	90.95	85.17	71.87	63.88	51.00	50.06
475.0	182.8	200.1	213.6	324.1	273.9	374.5	295.2	370.4	346.4	412.3	443.9	440.5	468.7	506.0	473.1	457.0	459.2	443.1	399.6	359.5	332.2	336.2	337.5	322.6	307.8	325.2	329.9	335.7	334.3	346.0	353.3	327.4	340.9	353.6	320.3	307.4	286.0	255.4	228.7	202.8	183.2	183.7	203.5	154.4	116.7	96.09	85.91	77.28	66.94	56.60	44.65
480.0	137.4	173.5	240.3	208.7	204.0	310.8	370.4	382.6	343.5	399.5	406.7	442.1	419.9	483.4	471.8	435.6	452.5	395.8	381.7	322.2	302.6	305.5	299.4	308.5	300.5	303.2	297.5	303.7	314.1	315.5	315.4	306.8	318.9	307.5	296.1	296.0	264.4	238.9	230.3	194.4	175.6	165.3	177.1	170.9	124.3	103.1	86.82	77.98	63.57	57.03	49.14
485.0	164.7	201.4	180.9	232.6	269.6	297.6	271.3	302.5	383.0	349.2	425.7	410.8	416.0	470.6	427.8	460.1	424.6	379.6	347.8	326.5	305.2	284.5	280.1	275.7	260.8	273.8	295.2	293.6	288.0	295.0	282.5	302.4	291.1	294.1	283.7	277.4	245.6	226.9	208.0	188.1	170.7	158.2	148.9	159.7	151.4	114.6	88.27	83.70	68.67	59.86	52.89
490.0	164.5	154.5	130.4	178.1	157.2	270.2	278.1	272.2	298.3	356.0	407.8	370.7	408.6	401.5	405.1	425.4	379.5	366.2	334.3	294.3	299.9	280.6	259.5	270.2	255.1	258.4	271.8	259.8	264.8	276.6	279.8	267.3	283.3	276.3	265.0	263.2	232.8	217.9	190.2	181.1	166.7	160.2	141.9	139.5	145.8	129.2	95.86	83.00	72.06	67.08	54.20
495.0	154.1	129.2	116.4	147.6	180.0	225.0	243.4	269.9	287.5	329.1	387.1	366.0	381.3	398.6	387.3	393.4	391.7	355.3	306.7	277.8	262.9	252.1	251.0	244.3	224.6	232.3	240.4	243.7	236.5	250.1	246.0	249.4	255.7	262.8	250.1	242.6	215.4	205.9	186.7	169.7	160.8	154.6	140.1	126.4	128.0	128.8	113.7	84.07	72.78	62.83	59.43
500.0	135.3	138.3	155.4	160.0	189.2	195.4	256.0	286.3	318.5	273.5	330.5	314.1	333.6	368.1	345.6	372.2	341.2	327.1	276.0	262.2	267.5	234.5	229.6	221.2	222.9	208.9	214.6	229.7	228.7	228.4	225.4	241.7	225.0	227.1	217.1	215.3	208.2	194.3	179.8	167.5	152.5	142.5	129.5	122.8	118.5	113.4	120.1	90.44	78.32	61.77	55.95
505.0	111.2	132.8	146.8	168.6	199.2	213.0	225.2	266.7	238.0	269.0	308.3	338.8	336.4	329.4	321.3	332.7	338.0	281.8	279.1	252.6	241.1	212.9	206.4	213.2	208.3	207.3	199.3	199.5	204.9	199.2	195.7	210.9	208.2	220.7	201.0	201.4	181.2	177.8	163.7	151.7	141.4	133.6	125.0	109.5	106.9	98.09	111.9	107.4	75.18	65.77	59.28
510.0	141.2	140.4	139.1	188.1	180.7	189.4	183.8	214.2	226.7	246.9	277.7	286.8	302.2	302.8	301.5	320.1	296.3	266.3	239.1	240.4	201.9	201.7	203.7	192.5	200.7	190.0	177.4	191.6	192.5	183.2	178.1	185.7	199.8	197.3	194.6	178.0	164.0	168.5	159.1	137.8	141.5	120.4	111.1	102.5	99.00	91.31	92.47	109.0	87.65	65.29	59.59
515.0	131.4	126.3	154.7	104.7	174.7	230.7	147.2	207.1	223.3	199.4	254.6	233.0	274.5	300.1	293.6	302.5	300.2	260.4	225.4	219.3	192.2	197.3	182.5	178.7	165.8	162.7	170.9	160.6	161.8	165.5	158.7	176.5	163.9	178.2	174.5	167.6	161.0	143.6	134.9	133.3	122.2	111.1	105.3	98.13	90.48	87.36	81.52	84.04	93.59	74.36	58.50
520.0	122.2	145.2	145.9	151.5	194.3	170.9	175.2	198.2	187.7	206.1	214.2	256.4	250.2	251.3	266.1	263.0	266.2	229.6	212.2	204.3	179.2	178.0	163.2	161.3	158.1	149.2	152.0	153.5	149.5	156.3	144.2	151.6	158.9	155.1	163.1	151.0	142.8	137.2	124.2	117.9	111.7	110.1	95.28	92.29	86.75	76.46	79.95	74.95	80.99	81.20	60.72
525.0	84.41	82.62	101.6	87.84	166.2	129.1	148.7	171.4	186.4	175.5	213.1	207.9	246.4	259.1	240.7	232.9	237.0	212.5	180.6	180.4	171.1	166.2	147.7	142.9	137.3	148.6	136.2	136.7	137.0	149.4	135.1	130.6	136.9	143.6	138.8	120.4	120.8	123.8	116.7	105.4	104.4	90.91	91.15	86.03	82.36	75.78	73.44	66.10	68.75	74.78	67.39
530.0	84.87	75.76	70.85	86.88	159.3	129.6	178.2	157.2	142.1	186.4	173.3	180.0	185.4	201.2	232.3	193.1	203.4	198.6	175.3	172.0	163.8	144.2	134.6	131.6	126.8	127.6	128.3	132.4	122.3	126.5	127.9	120.0	123.3	126.4	124.7	116.1	114.6	108.7	104.8	98.59	89.32	90.93	82.70	75.40	75.85	70.26	68.21	64.87	58.42	61.02	64.64
535.0	75.35	83.52	98.92	82.50	82.78	130.2	111.8	151.8	148.9	164.1	144.2	158.2	187.2	188.6	226.2	188.8	215.0	177.7	148.6	132.9	143.7	128.3	131.3	118.5	114.0	117.9	110.2	114.7	109.0	110.5	111.0	108.8	111.5	115.9	108.5	107.5	106.2	95.84	95.11	91.87	81.44	79.82	77.49	75.92	70.25	62.52	63.46	58.04	54.23	50.64	57.09
540.0	34.62	89.41	98.88	127.3	73.55	102.0	121.1	124.9	128.9	165.8	149.9	141.7	156.2	182.6	222.5	211.7	159.9	162.2	142.6	136.8	116.8	99.22	114.9	114.5	106.0	103.6	104.9	102.1	105.7	96.86	96.72	101.4	99.92	99.53	100.2	96.87	95.05	82.73	83.37	79.87	77.13	69.65	68.44	64.73	62.66	61.45	57.87	54.94	46.98	46.29	47.26
545.0	74.10	66.92	80.20	79.12	89.58	110.1	117.2	119.8	103.4	129.6	115.6	127.2	145.6	139.2	235.5	372.9	188.2	143.8	137.9	121.9	118.2	107.0	109.7	100.6	97.91	94.80	94.87	91.10	88.72	94.45	85.23	85.43	84.93	95.01	93.99	84.44	83.54	79.82	78.71	74.77	67.51	60.37	62.87	57.23	53.05	57.62	50.79	48.73	42.56	41.62	41.04
550.0	119.3	93.41	51.61	68.59	110.1	103.2	103.9	111.6	123.0	99.37	131.2	135.6	132.9	136.8	181.9	654.2	318.7	144.1	121.3	112.6	103.9	97.06	92.96	97.36	86.67	86.06	82.27	83.40	80.32	81.58	74.10	85.73	86.15	85.19	79.54	81.13	74.72	75.95	70.73	61.35	62.07	59.07	55.69	58.17	49.82	50.36	50.00	47.27	40.19	40.20	37.45
